task1	task2	thisN	thisTrialN	thisRepN	T0	T2	T1	lagT0	lagT1	lagT2	responseT1	responseT2	related	dist	key_resp_T1.keys	key_resp_T1.corr	key_resp_T2.keys	key_resp_T2.corr	key_resp_T2.rt	key_resp_T2.duration	press_to_continue.keys	press_to_continue.rt	press_to_continue.duration	key_resp_T1.rt	key_resp_T1.duration	block.thisRepN	block.thisTrialN	block.thisN	block.thisIndex	trial.thisRepN	trial.thisTrialN	trial.thisN	trial.thisIndex	trials_T0_context.thisRepN	trials_T0_context.thisTrialN	trials_T0_context.thisN	trials_T0_context.thisIndex	trials_T1.thisRepN	trials_T1.thisTrialN	trials_T1.thisN	trials_T1.thisIndex	trials_T2.thisRepN	trials_T2.thisTrialN	trials_T2.thisN	trials_T2.thisIndex	thisRow.t	notes	instructions.started	text_instructions.started	key_resp.started	instructions.stopped	key_resp.keys	key_resp.rt	key_resp.duration	settings.started	settings.stopped	T0_context.started	context_word.started	blankContext.started	context_word.stopped	blankContext.stopped	T0_context.stopped	distractors_T0_T2.started	distractors_T0_T2.stopped	text_distractors_2.started	T1_number.started	text_T1.started	T1_number.stopped	distractors_T1.started	distractors_T1.stopped	T2_probe.started	text_T2.started	T2_probe.stopped	Ask_T1.started	Ask_T1.stopped	trial.key_resp_T1.keys	trial.key_resp_T1.corr	Ask_T2.started	blankT2_1.started	blankT2_1.stopped	text_T2ask.started	key_resp_T2.started	Ask_T2.stopped	trial.key_resp_T2.keys	trial.key_resp_T2.corr	trial.key_resp_T2.rt	trial.key_resp_T2.duration	text_distractors.started	text_distractors_2.stopped	text_T2.stopped	rest.started	text.started	press_to_continue.started	text.stopped	rest.stopped	block.press_to_continue.keys	block.press_to_continue.rt	block.press_to_continue.duration	text_T1.stopped	text_distractors.stopped	blankT1_1.started	text_T1ask.started	key_resp_T1.started	blankT1_1.stopped	trial.key_resp_T1.rt	trial.key_resp_T1.duration	participant	order [1: single-dual or 2: dual-single]	date	expName	psychopyVersion	frameRate	expStart	Column1
																																																2,8027E+15	2,0621E+15	2,0621E+15	3,39277E+16	space	3,34584E+15	None																																																					Prueba_Conductual_1	1	2024-09-08_19h04.40.217	AB	202421	6,00199E+15	2024-09-08 19h05.17.898834 +0200	
single	dual	0	0	0	GANSO	XPATOXX	0	7	1	12	i	i	1	ZTFYDXH												0	0	0	0	0	0	0	0	0	5	5	0	0	0	0	0					6,11581E+15									3,41197E+15	3,41246E+15	3,8481E+15	3,85389E+16	4,42191E+16	4,85609E+15	5,56435E+15	5,40642E+15	5,84258E+15	5,92246E+15	5,85607E+15	5,93371E+14	5,93913E+15	6,00512E+15	6,09565E+13	6,09569E+15																																					Prueba_Conductual_1	1	2024-09-08_19h04.40.217	AB	202421	6,00199E+15	2024-09-08 19h05.17.898834 +0200	
single	dual	0	0	0	GANSO	XPATOXX	0	7	1	12	i	i	1	YNPLRQW												0	0	0	0	0	0	0	0									0	0	0	7	6,39502E+15																	6,38147E+15	6,38155E+15							6,11009E+15	6,11581E+15	6,18945E+15																																		Prueba_Conductual_1	1	2024-09-08_19h04.40.217	AB	202421	6,00199E+15	2024-09-08 19h05.17.898834 +0200	
single	dual	1	1	0	GANSO	XPATOXX	0	7	1	12	i	i	1	YGLMSFQ												0	0	0	0	0	0	0	0									0	1	1	1	6,39502E+15																	6,38668E+16	6,38675E+16																																											Prueba_Conductual_1	1	2024-09-08_19h04.40.217	AB	202421	6,00199E+15	2024-09-08 19h05.17.898834 +0200	
single	dual	2	2	0	GANSO	XPATOXX	0	7	1	12	i	i	1	WMYFTGJ												0	0	0	0	0	0	0	0									0	2	2	6	6,39502E+15																	6,39096E+15	6,44002E+15	6,39502E+15																																										Prueba_Conductual_1	1	2024-09-08_19h04.40.217	AB	202421	6,00199E+15	2024-09-08 19h05.17.898834 +0200	
single	dual	3	3	0	GANSO	XPATOXX	0	7	1	12	i	i	1	WFXQGMY												0	0	0	0	0	0	0	0									0	3	3	11	6,45658E+15																	6,44446E+15	6,52406E+15	6,45658E+15																																										Prueba_Conductual_1	1	2024-09-08_19h04.40.217	AB	202421	6,00199E+15	2024-09-08 19h05.17.898834 +0200	
single	dual	4	4	0	GANSO	XPATOXX	0	7	1	12	i	i	1	GQKRPDL												0	0	0	0	0	0	0	0									0	4	4	5	6,54004E+15																	6,52813E+16	6,60748E+15	6,54004E+15																																										Prueba_Conductual_1	1	2024-09-08_19h04.40.217	AB	202421	6,00199E+15	2024-09-08 19h05.17.898834 +0200	
single	dual	5	5	0	GANSO	XPATOXX	0	7	1	12	i	i	1	VFDMHQS												0	0	0	0	0	0	0	0									0	5	5	8	6,62345E+15																	6,61118E+15	6,68988E+13	6,62345E+15																																										Prueba_Conductual_1	1	2024-09-08_19h04.40.217	AB	202421	6,00199E+15	2024-09-08 19h05.17.898834 +0200	
single	dual	6	6	0	GANSO	XPATOXX	0	7	1	12	i	i	1	HQTYPJM												0	0	0	0	0	0	0	0									0	6	6	9	6,70569E+15																	6,69476E+16	6,77256E+15	6,70569E+15																																										Prueba_Conductual_1	1	2024-09-08_19h04.40.217	AB	202421	6,00199E+15	2024-09-08 19h05.17.898834 +0200	
single	dual	7	7	0	GANSO	XPATOXX	0	7	1	12	i	i	1	ZJTSHFP												0	0	0	0	0	0	0	0									0	7	7	3	6,7894E+15																	6,77575E+14	6,85728E+15	6,7894E+15																																										Prueba_Conductual_1	1	2024-09-08_19h04.40.217	AB	202421	6,00199E+15	2024-09-08 19h05.17.898834 +0200	
single	dual	8	8	0	GANSO	XPATOXX	0	7	1	12	i	i	1	TJRHKVF												0	0	0	0	0	0	0	0									0	8	8	10	6,87312E+15																	6,86004E+16	6,94007E+15	6,87312E+15																																										Prueba_Conductual_1	1	2024-09-08_19h04.40.217	AB	202421	6,00199E+15	2024-09-08 19h05.17.898834 +0200	
single	dual	9	9	0	GANSO	XPATOXX	0	7	1	12	i	i	1	ZTFYDXH												0	0	0	0	0	0	0	0									0	9	9	0	6,95627E+15																	6,94275E+16	7,02323E+15	6,95627E+15																																										Prueba_Conductual_1	1	2024-09-08_19h04.40.217	AB	202421	6,00199E+15	2024-09-08 19h05.17.898834 +0200	
single	dual	10	10	0	GANSO	XPATOXX	0	7	1	12	i	i	1	HLFPYXK												0	0	0	0	0	0	0	0									0	10	10	4	7,03933E+15																	7,02616E+15	7,1066E+15	7,03933E+15																																										Prueba_Conductual_1	1	2024-09-08_19h04.40.217	AB	202421	6,00199E+15	2024-09-08 19h05.17.898834 +0200	
single	dual	11	11	0	GANSO	XPATOXX	0	7	1	12	i	i	1	VYKXSPC												0	0	0	0	0	0	0	0									0	11	11	2	7,12333E+15																	7,1093E+16	7,1901E+14	7,12333E+15																																										Prueba_Conductual_1	1	2024-09-08_19h04.40.217	AB	202421	6,00199E+15	2024-09-08 19h05.17.898834 +0200	
single	dual	0	0	0	GANSO	XPATOXX	0	7	1	12	i	i	1		None	0	f	0	1,20939E+16	None						0	0	0	0	0	0	0	0																																									7,20029E+15	7,20036E+14	None	0	7,20042E+15	7,20668E+16	8,20614E+15	8,20614E+15	8,20614E+15	9,425E+14	f	0	1,20939E+16	None																				Prueba_Conductual_1	1	2024-09-08_19h04.40.217	AB	202421	6,00199E+15	2024-09-08 19h05.17.898834 +0200	
single	dual	0	0	0	NOMBRE	PRISIÓN	5555555	7	3	10	p	p	0	ZTFYDXH												0	0	0	0	0	1	1	1	0	5	5	5	0	0	0	0					1,21622E+16											9,42889E+14	9,43993E+14	1,04425E+16	1,04425E+16		1,14263E+16	1,18467E+16	1,1926E+16	1,18588E+16	1,19414E+15	1,19445E+16	1,20083E+14	1,21527E+16	1,21527E+16																																					Prueba_Conductual_1	1	2024-09-08_19h04.40.217	AB	202421	6,00199E+15	2024-09-08 19h05.17.898834 +0200	
single	dual	1	1	0	NOMBRE	PRISIÓN	5555555	7	3	10	p	p	0	YGLMSFQ												0	0	0	0	0	1	1	1					0	1	1	1					1,21622E+16																							1,21581E+16	1,2175E+16																		1,21622E+16																			Prueba_Conductual_1	1	2024-09-08_19h04.40.217	AB	202421	6,00199E+15	2024-09-08 19h05.17.898834 +0200	
single	dual	0	0	0	NOMBRE	PRISIÓN	5555555	7	3	10	p	p	0	WMYFTGJ												0	0	0	0	0	1	1	1									0	0	0	6	1,24497E+16																	1,24371E+16	1,24372E+15							1,21986E+16	1,22023E+16	1,22601E+16																																		Prueba_Conductual_1	1	2024-09-08_19h04.40.217	AB	202421	6,00199E+15	2024-09-08 19h05.17.898834 +0200	
single	dual	1	1	0	NOMBRE	PRISIÓN	5555555	7	3	10	p	p	0	VFDMHQS												0	0	0	0	0	1	1	1									0	1	1	8	1,24497E+16																	1,2442E+16	1,24421E+16																																											Prueba_Conductual_1	1	2024-09-08_19h04.40.217	AB	202421	6,00199E+15	2024-09-08 19h05.17.898834 +0200	
single	dual	2	2	0	NOMBRE	PRISIÓN	5555555	7	3	10	p	p	0	HQTYPJM												0	0	0	0	0	1	1	1									0	2	2	9	1,24497E+16																	1,24459E+15	1,25094E+14	1,24497E+16																																										Prueba_Conductual_1	1	2024-09-08_19h04.40.217	AB	202421	6,00199E+15	2024-09-08 19h05.17.898834 +0200	
single	dual	3	3	0	NOMBRE	PRISIÓN	5555555	7	3	10	p	p	0	HLFPYXK												0	0	0	0	0	1	1	1									0	3	3	4	1,25256E+16																	1,25138E+15	1,25933E+16	1,25256E+16																																										Prueba_Conductual_1	1	2024-09-08_19h04.40.217	AB	202421	6,00199E+15	2024-09-08 19h05.17.898834 +0200	
single	dual	4	4	0	NOMBRE	PRISIÓN	5555555	7	3	10	p	p	0	ZJTSHFP												0	0	0	0	0	1	1	1									0	4	4	3	1,26094E+16																	1,25988E+16	1,26758E+16	1,26094E+16																																										Prueba_Conductual_1	1	2024-09-08_19h04.40.217	AB	202421	6,00199E+15	2024-09-08 19h05.17.898834 +0200	
single	dual	5	5	0	NOMBRE	PRISIÓN	5555555	7	3	10	p	p	0	YNPLRQW												0	0	0	0	0	1	1	1									0	5	5	7	1,26938E+16																	1,26797E+16	1,27603E+16	1,26938E+16																																										Prueba_Conductual_1	1	2024-09-08_19h04.40.217	AB	202421	6,00199E+15	2024-09-08 19h05.17.898834 +0200	
single	dual	6	6	0	NOMBRE	PRISIÓN	5555555	7	3	10	p	p	0	YGLMSFQ												0	0	0	0	0	1	1	1									0	6	6	1	1,27762E+16																	1,27636E+16	1,28427E+16	1,27762E+16																																										Prueba_Conductual_1	1	2024-09-08_19h04.40.217	AB	202421	6,00199E+15	2024-09-08 19h05.17.898834 +0200	
single	dual	7	7	0	NOMBRE	PRISIÓN	5555555	7	3	10	p	p	0	GQKRPDL												0	0	0	0	0	1	1	1									0	7	7	5	1,28594E+16																	1,28477E+16	1,29272E+16	1,28594E+16																																										Prueba_Conductual_1	1	2024-09-08_19h04.40.217	AB	202421	6,00199E+15	2024-09-08 19h05.17.898834 +0200	
single	dual	8	8	0	NOMBRE	PRISIÓN	5555555	7	3	10	p	p	0	VYKXSPC												0	0	0	0	0	1	1	1									0	8	8	2	1,29419E+16																	1,29334E+16	1,301E+15	1,29419E+16																																										Prueba_Conductual_1	1	2024-09-08_19h04.40.217	AB	202421	6,00199E+15	2024-09-08 19h05.17.898834 +0200	
single	dual	9	9	0	NOMBRE	PRISIÓN	5555555	7	3	10	p	p	0	ZTFYDXH												0	0	0	0	0	1	1	1									0	9	9	0	1,30268E+16																	1,30142E+16	1,3093E+16	1,30268E+16																																										Prueba_Conductual_1	1	2024-09-08_19h04.40.217	AB	202421	6,00199E+15	2024-09-08 19h05.17.898834 +0200	
single	dual	1	1	0	NOMBRE	PRISIÓN	5555555	7	3	10	p	p	0		None	0	j	0	6,38566E+15	None						0	0	0	0	0	1	1	1																																									1,3116E+16	1,31161E+15	None	0	1,31162E+16	1,31193E+16	1,41267E+16	1,41267E+16	1,41267E+16	1,47773E+16	j	0	6,38566E+15	None																				Prueba_Conductual_1	1	2024-09-08_19h04.40.217	AB	202421	6,00199E+15	2024-09-08 19h05.17.898834 +0200	
single	dual	0	0	0	INICIO	XPIESXX	4444444	7	1	12	i	p	0	GQKRPDL												0	0	0	0	0	2	2	2	0	5	5	5	0	0	0	0					1,74512E+16											1,47797E+16	1,47938E+16	1,57764E+16	1,57941E+16	1,68368E+16	1,67617E+15	1,71967E+16	1,72771E+16	1,72107E+15	1,72871E+16	1,72944E+16	1,73615E+16	1,74391E+16	1,74392E+16																																					Prueba_Conductual_1	1	2024-09-08_19h04.40.217	AB	202421	6,00199E+15	2024-09-08 19h05.17.898834 +0200	
single	dual	0	0	0	INICIO	XPIESXX	4444444	7	1	12	i	p	0	WMYFTGJ												0	0	0	0	0	2	2	2									0	0	0	6	1,76042E+16																	1,76012E+16	1,76104E+16	1,76042E+16						1,74489E+16	1,74512E+16	1,75275E+15																																		Prueba_Conductual_1	1	2024-09-08_19h04.40.217	AB	202421	6,00199E+15	2024-09-08 19h05.17.898834 +0200	
single	dual	1	1	0	INICIO	XPIESXX	4444444	7	1	12	i	p	0	HQTYPJM												0	0	0	0	0	2	2	2									0	1	1	9	1,76295E+16																	1,76126E+16	1,76945E+16	1,76295E+16																																										Prueba_Conductual_1	1	2024-09-08_19h04.40.217	AB	202421	6,00199E+15	2024-09-08 19h05.17.898834 +0200	
single	dual	2	2	0	INICIO	XPIESXX	4444444	7	1	12	i	p	0	YGLMSFQ												0	0	0	0	0	2	2	2									0	2	2	1	1,77104E+15																	1,7697E+16	1,77777E+16	1,77104E+15																																										Prueba_Conductual_1	1	2024-09-08_19h04.40.217	AB	202421	6,00199E+15	2024-09-08 19h05.17.898834 +0200	
single	dual	3	3	0	INICIO	XPIESXX	4444444	7	1	12	i	p	0	HLFPYXK												0	0	0	0	0	2	2	2									0	3	3	4	1,77946E+16																	1,77798E+16	1,78612E+15	1,77946E+16																																										Prueba_Conductual_1	1	2024-09-08_19h04.40.217	AB	202421	6,00199E+15	2024-09-08 19h05.17.898834 +0200	
single	dual	4	4	0	INICIO	XPIESXX	4444444	7	1	12	i	p	0	ZTFYDXH												0	0	0	0	0	2	2	2									0	4	4	0	1,78774E+16																	1,78638E+16	1,79447E+15	1,78774E+16																																										Prueba_Conductual_1	1	2024-09-08_19h04.40.217	AB	202421	6,00199E+15	2024-09-08 19h05.17.898834 +0200	
single	dual	5	5	0	INICIO	XPIESXX	4444444	7	1	12	i	p	0	VYKXSPC												0	0	0	0	0	2	2	2									0	5	5	2	1,79615E+16																	1,79469E+16	1,80277E+16	1,79615E+16																																										Prueba_Conductual_1	1	2024-09-08_19h04.40.217	AB	202421	6,00199E+15	2024-09-08 19h05.17.898834 +0200	
single	dual	6	6	0	INICIO	XPIESXX	4444444	7	1	12	i	p	0	ZJTSHFP												0	0	0	0	0	2	2	2									0	6	6	3	1,80443E+16																	1,80298E+16	1,81107E+15	1,80443E+16																																										Prueba_Conductual_1	1	2024-09-08_19h04.40.217	AB	202421	6,00199E+15	2024-09-08 19h05.17.898834 +0200	
single	dual	7	7	0	INICIO	XPIESXX	4444444	7	1	12	i	p	0	YNPLRQW												0	0	0	0	0	2	2	2									0	7	7	7	1,81275E+16																	1,81127E+16	1,81955E+15	1,81275E+16																																										Prueba_Conductual_1	1	2024-09-08_19h04.40.217	AB	202421	6,00199E+15	2024-09-08 19h05.17.898834 +0200	
single	dual	8	8	0	INICIO	XPIESXX	4444444	7	1	12	i	p	0	TJRHKVF												0	0	0	0	0	2	2	2									0	8	8	10	1,8212E+15																	1,81979E+16	1,82778E+15	1,8212E+15																																										Prueba_Conductual_1	1	2024-09-08_19h04.40.217	AB	202421	6,00199E+15	2024-09-08 19h05.17.898834 +0200	
single	dual	9	9	0	INICIO	XPIESXX	4444444	7	1	12	i	p	0	VFDMHQS												0	0	0	0	0	2	2	2									0	9	9	8	1,8295E+16																	1,82798E+15	1,83614E+16	1,8295E+16																																										Prueba_Conductual_1	1	2024-09-08_19h04.40.217	AB	202421	6,00199E+15	2024-09-08 19h05.17.898834 +0200	
single	dual	10	10	0	INICIO	XPIESXX	4444444	7	1	12	i	p	0	GQKRPDL												0	0	0	0	0	2	2	2									0	10	10	5	1,83773E+16																	1,83637E+16	1,84445E+15	1,83773E+16																																										Prueba_Conductual_1	1	2024-09-08_19h04.40.217	AB	202421	6,00199E+15	2024-09-08 19h05.17.898834 +0200	
single	dual	11	11	0	INICIO	XPIESXX	4444444	7	1	12	i	p	0	WFXQGMY												0	0	0	0	0	2	2	2									0	11	11	11	1,8462E+16																	1,84468E+16	1,85294E+16	1,8462E+16																																										Prueba_Conductual_1	1	2024-09-08_19h04.40.217	AB	202421	6,00199E+15	2024-09-08 19h05.17.898834 +0200	
single	dual	2	2	0	INICIO	XPIESXX	4444444	7	1	12	i	p	0		None	0	j	0	3,32122E+15	None						0	0	0	0	0	2	2	2																																									1,85371E+16	1,85372E+15	None	0	1,85372E+15	1,85449E+16	1,95456E+16	1,95456E+16	1,95456E+16	1,98802E+15	j	0	3,32122E+15	None																				Prueba_Conductual_1	1	2024-09-08_19h04.40.217	AB	202421	6,00199E+15	2024-09-08 19h05.17.898834 +0200	
single	dual	0	0	0	REFRÁN	PANTALÓN	0	10	3	7	i	p	0	ZTFYDXH												0	0	0	0	0	3	3	3	0	8	8	3	0	0	0	0					2,28664E+15											1,98853E+14	1,9896E+16	2,08793E+16	2,08969E+16	2,20025E+16	2,18642E+16	2,25505E+16	2,26308E+16	2,25641E+16	2,26519E+16	2,2655E+15	2,27142E+15	2,28581E+16	2,28582E+16																																					Prueba_Conductual_1	1	2024-09-08_19h04.40.217	AB	202421	6,00199E+15	2024-09-08 19h05.17.898834 +0200	
single	dual	1	1	0	REFRÁN	PANTALÓN	0	10	3	7	i	p	0	YGLMSFQ												0	0	0	0	0	3	3	3					0	1	1	1					2,28664E+15																							2,28633E+14	2,28801E+16																		2,28664E+15																			Prueba_Conductual_1	1	2024-09-08_19h04.40.217	AB	202421	6,00199E+15	2024-09-08 19h05.17.898834 +0200	
single	dual	0	0	0	REFRÁN	PANTALÓN	0	10	3	7	i	p	0	GQKRPDL												0	0	0	0	0	3	3	3									0	0	0	5	2,30725E+16																	2,3064E+15	2,30641E+16							2,2899E+15	2,29034E+16	2,29651E+16																																		Prueba_Conductual_1	1	2024-09-08_19h04.40.217	AB	202421	6,00199E+15	2024-09-08 19h05.17.898834 +0200	
single	dual	1	1	0	REFRÁN	PANTALÓN	0	10	3	7	i	p	0	YGLMSFQ												0	0	0	0	0	3	3	3									0	1	1	1	2,30725E+16																	2,30688E+16	2,31319E+16	2,30725E+16																																										Prueba_Conductual_1	1	2024-09-08_19h04.40.217	AB	202421	6,00199E+15	2024-09-08 19h05.17.898834 +0200	
single	dual	2	2	0	REFRÁN	PANTALÓN	0	10	3	7	i	p	0	ZTFYDXH												0	0	0	0	0	3	3	3									0	2	2	0	2,3148E+16																	2,31367E+16	2,32135E+15	2,3148E+16																																										Prueba_Conductual_1	1	2024-09-08_19h04.40.217	AB	202421	6,00199E+15	2024-09-08 19h05.17.898834 +0200	
single	dual	3	3	0	REFRÁN	PANTALÓN	0	10	3	7	i	p	0	WMYFTGJ												0	0	0	0	0	3	3	3									0	3	3	6	2,32306E+16																	2,32161E+16	2,32974E+15	2,32306E+16																																										Prueba_Conductual_1	1	2024-09-08_19h04.40.217	AB	202421	6,00199E+15	2024-09-08 19h05.17.898834 +0200	
single	dual	4	4	0	REFRÁN	PANTALÓN	0	10	3	7	i	p	0	VYKXSPC												0	0	0	0	0	3	3	3									0	4	4	2	2,33135E+16																	2,33022E+15	2,33805E+16	2,33135E+16																																										Prueba_Conductual_1	1	2024-09-08_19h04.40.217	AB	202421	6,00199E+15	2024-09-08 19h05.17.898834 +0200	
single	dual	5	5	0	REFRÁN	PANTALÓN	0	10	3	7	i	p	0	HLFPYXK												0	0	0	0	0	3	3	3									0	5	5	4	2,33974E+16																	2,33834E+16	2,34645E+16	2,33974E+16																																										Prueba_Conductual_1	1	2024-09-08_19h04.40.217	AB	202421	6,00199E+15	2024-09-08 19h05.17.898834 +0200	
single	dual	6	6	0	REFRÁN	PANTALÓN	0	10	3	7	i	p	0	ZJTSHFP												0	0	0	0	0	3	3	3									0	6	6	3	2,34807E+16																	2,34675E+16	2,35476E+15	2,34807E+16																																										Prueba_Conductual_1	1	2024-09-08_19h04.40.217	AB	202421	6,00199E+15	2024-09-08 19h05.17.898834 +0200	
single	dual	3	3	0	REFRÁN	PANTALÓN	0	10	3	7	i	p	0		None	0	j	0	3,18805E+16	None						0	0	0	0	0	3	3	3																																									2,35642E+16	2,35643E+16	None	0	2,35644E+15	2,35673E+16	2,45807E+16	2,45641E+16	2,45641E+16	2,4899E+16	j	0	3,18805E+16	None																				Prueba_Conductual_1	1	2024-09-08_19h04.40.217	AB	202421	6,00199E+15	2024-09-08 19h05.17.898834 +0200	
single	dual	0	0	0	AHORA	XTARTAX	6666666	10	3	7	i	p	0	ZTFYDXH												0	0	0	0	0	4	4	4	0	8	8	3	0	0	0	0					2,79411E+15											2,49015E+16	2,4914E+16	2,59149E+16	2,59149E+16		2,68999E+16	2,75703E+16	2,76493E+15	2,75824E+16	2,7678E+16	2,76815E+15	2,77335E+16	2,79203E+16	2,79204E+16																																					Prueba_Conductual_1	1	2024-09-08_19h04.40.217	AB	202421	6,00199E+15	2024-09-08 19h05.17.898834 +0200	
single	dual	1	1	0	AHORA	XTARTAX	6666666	10	3	7	i	p	0	YGLMSFQ												0	0	0	0	0	4	4	4					0	1	1	1					2,79411E+15																							2,79234E+16	2,79234E+16																																					Prueba_Conductual_1	1	2024-09-08_19h04.40.217	AB	202421	6,00199E+15	2024-09-08 19h05.17.898834 +0200	
single	dual	0	0	0	AHORA	XTARTAX	6666666	10	3	7	i	p	0	YGLMSFQ												0	0	0	0	0	4	4	4									0	0	0	1	2,80761E+16																	2,80705E+15	2,80706E+16							2,79379E+16	2,79411E+15	2,79826E+16																																		Prueba_Conductual_1	1	2024-09-08_19h04.40.217	AB	202421	6,00199E+15	2024-09-08 19h05.17.898834 +0200	
single	dual	1	1	0	AHORA	XTARTAX	6666666	10	3	7	i	p	0	ZJTSHFP												0	0	0	0	0	4	4	4									0	1	1	3	2,80761E+16																	2,80729E+16	2,81493E+15	2,80761E+16																																										Prueba_Conductual_1	1	2024-09-08_19h04.40.217	AB	202421	6,00199E+15	2024-09-08 19h05.17.898834 +0200	
single	dual	2	2	0	AHORA	XTARTAX	6666666	10	3	7	i	p	0	WMYFTGJ												0	0	0	0	0	4	4	4									0	2	2	6	2,81663E+16																	2,81521E+16	2,82331E+16	2,81663E+16																																										Prueba_Conductual_1	1	2024-09-08_19h04.40.217	AB	202421	6,00199E+15	2024-09-08 19h05.17.898834 +0200	
single	dual	3	3	0	AHORA	XTARTAX	6666666	10	3	7	i	p	0	VYKXSPC												0	0	0	0	0	4	4	4									0	3	3	2	2,82495E+16																	2,82374E+16	2,83168E+16	2,82495E+16																																										Prueba_Conductual_1	1	2024-09-08_19h04.40.217	AB	202421	6,00199E+15	2024-09-08 19h05.17.898834 +0200	
single	dual	4	4	0	AHORA	XTARTAX	6666666	10	3	7	i	p	0	GQKRPDL												0	0	0	0	0	4	4	4									0	4	4	5	2,83335E+16																	2,83217E+16	2,84003E+16	2,83335E+16																																										Prueba_Conductual_1	1	2024-09-08_19h04.40.217	AB	202421	6,00199E+15	2024-09-08 19h05.17.898834 +0200	
single	dual	5	5	0	AHORA	XTARTAX	6666666	10	3	7	i	p	0	ZTFYDXH												0	0	0	0	0	4	4	4									0	5	5	0	2,84162E+15																	2,84039E+16	2,8484E+16	2,84162E+15																																										Prueba_Conductual_1	1	2024-09-08_19h04.40.217	AB	202421	6,00199E+15	2024-09-08 19h05.17.898834 +0200	
single	dual	6	6	0	AHORA	XTARTAX	6666666	10	3	7	i	p	0	HLFPYXK												0	0	0	0	0	4	4	4									0	6	6	4	2,85008E+16																	2,84882E+16	2,85666E+16	2,85008E+16																																										Prueba_Conductual_1	1	2024-09-08_19h04.40.217	AB	202421	6,00199E+15	2024-09-08 19h05.17.898834 +0200	
single	dual	4	4	0	AHORA	XTARTAX	6666666	10	3	7	i	p	0		None	0	j	0	4,68425E+15	None						0	0	0	0	0	4	4	4																																									2,85769E+16	2,85769E+16	None	0	2,8577E+16	2,85825E+16	2,95836E+16	2,95836E+16	2,95836E+16	3,00694E+15	j	0	4,68425E+15	None																				Prueba_Conductual_1	1	2024-09-08_19h04.40.217	AB	202421	6,00199E+15	2024-09-08 19h05.17.898834 +0200	
single	dual	0	0	0	EMPEZAR	DETENER	8888888	10	3	7	i	i	1	ZTFYDXH												0	0	0	0	0	5	5	5	0	8	8	7	0	0	0	0					3,29729E+15											3,00721E+16	3,00835E+16	3,10839E+16	3,10839E+16	3,21629E+15	3,2069E+15	3,27367E+16	3,28186E+15	3,27509E+16	3,28283E+15	3,28352E+15	3,29027E+15	3,29699E+13	3,29852E+16																		3,29729E+15	3,24175E+14																		Prueba_Conductual_1	1	2024-09-08_19h04.40.217	AB	202421	6,00199E+15	2024-09-08 19h05.17.898834 +0200	
single	dual	1	1	0	EMPEZAR	DETENER	8888888	10	3	7	i	i	1	YGLMSFQ												0	0	0	0	0	5	5	5					0	1	1	1					3,30013E+16																							3,29884E+15	3,30686E+15																		3,30013E+16																			Prueba_Conductual_1	1	2024-09-08_19h04.40.217	AB	202421	6,00199E+15	2024-09-08 19h05.17.898834 +0200	
single	dual	0	0	0	EMPEZAR	DETENER	8888888	10	3	7	i	i	1	HLFPYXK												0	0	0	0	0	5	5	5									0	0	0	4	3,32189E+15																	3,32163E+15	3,32348E+15	3,32189E+15						3,30773E+15	3,30842E+16	3,31511E+16																																		Prueba_Conductual_1	1	2024-09-08_19h04.40.217	AB	202421	6,00199E+15	2024-09-08 19h05.17.898834 +0200	
single	dual	1	1	0	EMPEZAR	DETENER	8888888	10	3	7	i	i	1	GQKRPDL												0	0	0	0	0	5	5	5									0	1	1	5	3,32514E+16																	3,32369E+15	3,33188E+15	3,32514E+16																																										Prueba_Conductual_1	1	2024-09-08_19h04.40.217	AB	202421	6,00199E+15	2024-09-08 19h05.17.898834 +0200	
single	dual	2	2	0	EMPEZAR	DETENER	8888888	10	3	7	i	i	1	ZJTSHFP												0	0	0	0	0	5	5	5									0	2	2	3	3,33359E+15																	3,33216E+15	3,3402E+15	3,33359E+15																																										Prueba_Conductual_1	1	2024-09-08_19h04.40.217	AB	202421	6,00199E+15	2024-09-08 19h05.17.898834 +0200	
single	dual	3	3	0	EMPEZAR	DETENER	8888888	10	3	7	i	i	1	WMYFTGJ												0	0	0	0	0	5	5	5									0	3	3	6	3,34177E+15																	3,34043E+16	3,34849E+15	3,34177E+15																																										Prueba_Conductual_1	1	2024-09-08_19h04.40.217	AB	202421	6,00199E+15	2024-09-08 19h05.17.898834 +0200	
single	dual	4	4	0	EMPEZAR	DETENER	8888888	10	3	7	i	i	1	ZTFYDXH												0	0	0	0	0	5	5	5									0	4	4	0	3,35018E+15																	3,34872E+15	3,35691E+15	3,35018E+15																																										Prueba_Conductual_1	1	2024-09-08_19h04.40.217	AB	202421	6,00199E+15	2024-09-08 19h05.17.898834 +0200	
single	dual	5	5	0	EMPEZAR	DETENER	8888888	10	3	7	i	i	1	YGLMSFQ												0	0	0	0	0	5	5	5									0	5	5	1	3,35846E+15																	3,35713E+15	3,36517E+15	3,35846E+15																																										Prueba_Conductual_1	1	2024-09-08_19h04.40.217	AB	202421	6,00199E+15	2024-09-08 19h05.17.898834 +0200	
single	dual	6	6	0	EMPEZAR	DETENER	8888888	10	3	7	i	i	1	VYKXSPC												0	0	0	0	0	5	5	5									0	6	6	2	3,36683E+16																	3,36539E+15	3,37389E+16	3,36683E+16																																										Prueba_Conductual_1	1	2024-09-08_19h04.40.217	AB	202421	6,00199E+15	2024-09-08 19h05.17.898834 +0200	
single	dual	5	5	0	EMPEZAR	DETENER	8888888	10	3	7	i	i	1		None	0	f	0	2,79125E+16	None						0	0	0	0	0	5	5	5																																									3,37552E+15	3,37553E+16	None	0	3,37554E+15	3,37583E+16	3,47689E+15	3,47689E+15	3,47689E+15	3,50532E+15	f	0	2,79125E+16	None																				Prueba_Conductual_1	1	2024-09-08_19h04.40.217	AB	202421	6,00199E+15	2024-09-08 19h05.17.898834 +0200	
single	dual	0	0	0	FOGÓN	MARCHAR	4444444	10	7	3	i	p	0	YGLMSFQ												0	0	0	0	0	6	6	6	0	8	8	5	0	0	0	1					3,80483E+16											3,50554E+15	3,50692E+15	3,60528E+15	3,60697E+15	3,72753E+16	3,70401E+16	3,77271E+15	3,78052E+15	3,77383E+16	3,78334E+14	3,78379E+15	3,78885E+16	3,80398E+15	3,80399E+14																																					Prueba_Conductual_1	1	2024-09-08_19h04.40.217	AB	202421	6,00199E+15	2024-09-08 19h05.17.898834 +0200	
single	dual	1	1	0	FOGÓN	MARCHAR	4444444	10	7	3	i	p	0	HLFPYXK												0	0	0	0	0	6	6	6					0	1	1	4					3,80483E+16																							3,80442E+14	3,80545E+15																		3,80483E+16																			Prueba_Conductual_1	1	2024-09-08_19h04.40.217	AB	202421	6,00199E+15	2024-09-08 19h05.17.898834 +0200	
single	dual	2	2	0	FOGÓN	MARCHAR	4444444	10	7	3	i	p	0	ZTFYDXH												0	0	0	0	0	6	6	6					0	2	2	0					3,80714E+16																							3,80585E+15	3,81386E+15																		3,80714E+16																			Prueba_Conductual_1	1	2024-09-08_19h04.40.217	AB	202421	6,00199E+15	2024-09-08 19h05.17.898834 +0200	
single	dual	3	3	0	FOGÓN	MARCHAR	4444444	10	7	3	i	p	0	GQKRPDL												0	0	0	0	0	6	6	6					0	3	3	5					3,81543E+15																							3,81434E+15	3,82218E+15																		3,81543E+15																			Prueba_Conductual_1	1	2024-09-08_19h04.40.217	AB	202421	6,00199E+15	2024-09-08 19h05.17.898834 +0200	
single	dual	4	4	0	FOGÓN	MARCHAR	4444444	10	7	3	i	p	0	VYKXSPC												0	0	0	0	0	6	6	6					0	4	4	2					3,82394E+15																							3,823E+16	3,83059E+14																		3,82394E+15																			Prueba_Conductual_1	1	2024-09-08_19h04.40.217	AB	202421	6,00199E+15	2024-09-08 19h05.17.898834 +0200	
single	dual	5	5	0	FOGÓN	MARCHAR	4444444	10	7	3	i	p	0	ZJTSHFP												0	0	0	0	0	6	6	6					0	5	5	3					3,83215E+15																							3,83109E+15	3,83881E+15																		3,83215E+15																			Prueba_Conductual_1	1	2024-09-08_19h04.40.217	AB	202421	6,00199E+15	2024-09-08 19h05.17.898834 +0200	
single	dual	0	0	0	FOGÓN	MARCHAR	4444444	10	7	3	i	p	0	ZTFYDXH												0	0	0	0	0	6	6	6									0	0	0	0	3,87757E+16																	3,87181E+15	3,87182E+15							3,84088E+15	3,84128E+14	3,84718E+15																																		Prueba_Conductual_1	1	2024-09-08_19h04.40.217	AB	202421	6,00199E+15	2024-09-08 19h05.17.898834 +0200	
single	dual	1	1	0	FOGÓN	MARCHAR	4444444	10	7	3	i	p	0	VYKXSPC												0	0	0	0	0	6	6	6									0	1	1	2	3,87757E+16																	3,87256E+15	3,87257E+15																																											Prueba_Conductual_1	1	2024-09-08_19h04.40.217	AB	202421	6,00199E+15	2024-09-08 19h05.17.898834 +0200	
single	dual	2	2	0	FOGÓN	MARCHAR	4444444	10	7	3	i	p	0	YGLMSFQ												0	0	0	0	0	6	6	6									0	2	2	1	3,87757E+16																	3,87331E+16	3,87332E+15																																											Prueba_Conductual_1	1	2024-09-08_19h04.40.217	AB	202421	6,00199E+15	2024-09-08 19h05.17.898834 +0200	
single	dual	6	6	0	FOGÓN	MARCHAR	4444444	10	7	3	i	p	0		None	0	j	0	4,74657E+15	None						0	0	0	0	0	6	6	6																																									3,87712E+15	3,87714E+14	None	0	3,87715E+15	3,87757E+16	3,97889E+14	3,97722E+15	3,97722E+15	4,02585E+15	j	0	4,74657E+15	None																				Prueba_Conductual_1	1	2024-09-08_19h04.40.217	AB	202421	6,00199E+15	2024-09-08 19h05.17.898834 +0200	
single	dual	0	0	0	TRISTE	XAGUAXX	8888888	7	7	6	i	p	0	ZJTSHFP												0	0	0	0	0	7	7	7	0	5	5	1	0	0	0	3					4,30388E+15											4,0263E+15	4,02725E+15	4,12713E+15	4,12884E+16	4,23527E+15	4,22571E+15	4,268E+16	4,27582E+15	4,26914E+15	4,27905E+15	4,27944E+15	4,28407E+15	4,30245E+15	4,30245E+16																			4,26066E+15																		Prueba_Conductual_1	1	2024-09-08_19h04.40.217	AB	202421	6,00199E+15	2024-09-08 19h05.17.898834 +0200	
single	dual	1	1	0	TRISTE	XAGUAXX	8888888	7	7	6	i	p	0	HLFPYXK												0	0	0	0	0	7	7	7					0	1	1	4					4,30388E+15																							4,30286E+15	4,30287E+14																																					Prueba_Conductual_1	1	2024-09-08_19h04.40.217	AB	202421	6,00199E+15	2024-09-08 19h05.17.898834 +0200	
single	dual	2	2	0	TRISTE	XAGUAXX	8888888	7	7	6	i	p	0	VYKXSPC												0	0	0	0	0	7	7	7					0	2	2	2					4,30388E+15																							4,30332E+15	4,30906E+16																		4,30388E+15																			Prueba_Conductual_1	1	2024-09-08_19h04.40.217	AB	202421	6,00199E+15	2024-09-08 19h05.17.898834 +0200	
single	dual	3	3	0	TRISTE	XAGUAXX	8888888	7	7	6	i	p	0	ZTFYDXH												0	0	0	0	0	7	7	7					0	3	3	0					4,31082E+15																							4,30973E+15	4,31749E+14																		4,31082E+15																			Prueba_Conductual_1	1	2024-09-08_19h04.40.217	AB	202421	6,00199E+15	2024-09-08 19h05.17.898834 +0200	
single	dual	4	4	0	TRISTE	XAGUAXX	8888888	7	7	6	i	p	0	YGLMSFQ												0	0	0	0	0	7	7	7					0	4	4	1					4,31919E+15																							4,3182E+16	4,32577E+15																		4,31919E+15																			Prueba_Conductual_1	1	2024-09-08_19h04.40.217	AB	202421	6,00199E+15	2024-09-08 19h05.17.898834 +0200	
single	dual	5	5	0	TRISTE	XAGUAXX	8888888	7	7	6	i	p	0	GQKRPDL												0	0	0	0	0	7	7	7					0	5	5	5					4,32742E+16																							4,3262E+15	4,33414E+15																		4,32742E+16																			Prueba_Conductual_1	1	2024-09-08_19h04.40.217	AB	202421	6,00199E+15	2024-09-08 19h05.17.898834 +0200	
single	dual	0	0	0	TRISTE	XAGUAXX	8888888	7	7	6	i	p	0	GQKRPDL												0	0	0	0	0	7	7	7									0	0	0	5	4,36457E+14																	4,36291E+16	4,36292E+15							4,33749E+15	4,33792E+14	4,34243E+15																																		Prueba_Conductual_1	1	2024-09-08_19h04.40.217	AB	202421	6,00199E+15	2024-09-08 19h05.17.898834 +0200	
single	dual	1	1	0	TRISTE	XAGUAXX	8888888	7	7	6	i	p	0	VYKXSPC												0	0	0	0	0	7	7	7									0	1	1	2	4,36457E+14																	4,36334E+16	4,36335E+15																																											Prueba_Conductual_1	1	2024-09-08_19h04.40.217	AB	202421	6,00199E+15	2024-09-08 19h05.17.898834 +0200	
single	dual	2	2	0	TRISTE	XAGUAXX	8888888	7	7	6	i	p	0	ZJTSHFP												0	0	0	0	0	7	7	7									0	2	2	3	4,36457E+14																	4,36411E+16	4,3674E+15	4,36457E+14																																										Prueba_Conductual_1	1	2024-09-08_19h04.40.217	AB	202421	6,00199E+15	2024-09-08 19h05.17.898834 +0200	
single	dual	3	3	0	TRISTE	XAGUAXX	8888888	7	7	6	i	p	0	ZTFYDXH												0	0	0	0	0	7	7	7									0	3	3	0	4,36903E+16																	4,36787E+15	4,37568E+15	4,36903E+16																																										Prueba_Conductual_1	1	2024-09-08_19h04.40.217	AB	202421	6,00199E+15	2024-09-08 19h05.17.898834 +0200	
single	dual	4	4	0	TRISTE	XAGUAXX	8888888	7	7	6	i	p	0	YGLMSFQ												0	0	0	0	0	7	7	7									0	4	4	1	4,37755E+15																	4,37636E+16	4,38421E+15	4,37755E+15																																										Prueba_Conductual_1	1	2024-09-08_19h04.40.217	AB	202421	6,00199E+15	2024-09-08 19h05.17.898834 +0200	
single	dual	5	5	0	TRISTE	XAGUAXX	8888888	7	7	6	i	p	0	HLFPYXK												0	0	0	0	0	7	7	7									0	5	5	4	4,38582E+15																	4,38477E+15	4,3924E+16	4,38582E+15																																										Prueba_Conductual_1	1	2024-09-08_19h04.40.217	AB	202421	6,00199E+15	2024-09-08 19h05.17.898834 +0200	
single	dual	7	7	0	TRISTE	XAGUAXX	8888888	7	7	6	i	p	0		None	0	j	0	5,24041E+15	None						0	0	0	0	0	7	7	7																																									4,39403E+15	4,39404E+15	None	0	4,39405E+16	4,39436E+15	4,49579E+16	4,49413E+15	4,49413E+15	4,54772E+15	j	0	5,24041E+15	None																				Prueba_Conductual_1	1	2024-09-08_19h04.40.217	AB	202421	6,00199E+15	2024-09-08 19h05.17.898834 +0200	
single	dual	0	0	0	NORTE	XXSURXX	1111111	7	3	10	p	i	1	YGLMSFQ												0	0	0	0	0	8	8	8	0	5	5	5	0	0	0	1					4,81477E+15											4,54844E+15	4,54932E+16	4,64911E+16	4,65071E+15	4,75449E+16	4,74753E+15	4,78975E+15	4,79757E+15	4,79088E+15	4,79865E+15	4,79924E+15	4,80593E+15	4,81426E+14	4,81427E+15																			4,79924E+15																		Prueba_Conductual_1	1	2024-09-08_19h04.40.217	AB	202421	6,00199E+15	2024-09-08 19h05.17.898834 +0200	
single	dual	1	1	0	NORTE	XXSURXX	1111111	7	3	10	p	i	1	ZTFYDXH												0	0	0	0	0	8	8	8					0	1	1	0					4,81477E+15																							4,81447E+15	4,82262E+15																		4,81477E+15																			Prueba_Conductual_1	1	2024-09-08_19h04.40.217	AB	202421	6,00199E+15	2024-09-08 19h05.17.898834 +0200	
single	dual	0	0	0	NORTE	XXSURXX	1111111	7	3	10	p	i	1	HQTYPJM												0	0	0	0	0	8	8	8									0	0	0	9	4,84278E+15																	4,84192E+15	4,84193E+14							4,82375E+15	4,82431E+15	4,83092E+15																																		Prueba_Conductual_1	1	2024-09-08_19h04.40.217	AB	202421	6,00199E+15	2024-09-08 19h05.17.898834 +0200	
single	dual	1	1	0	NORTE	XXSURXX	1111111	7	3	10	p	i	1	VFDMHQS												0	0	0	0	0	8	8	8									0	1	1	8	4,84278E+15																	4,84248E+15	4,84769E+14	4,84278E+15																																										Prueba_Conductual_1	1	2024-09-08_19h04.40.217	AB	202421	6,00199E+15	2024-09-08 19h05.17.898834 +0200	
single	dual	2	2	0	NORTE	XXSURXX	1111111	7	3	10	p	i	1	VYKXSPC												0	0	0	0	0	8	8	8									0	2	2	2	4,84935E+15																	4,84836E+15	4,85608E+15	4,84935E+15																																										Prueba_Conductual_1	1	2024-09-08_19h04.40.217	AB	202421	6,00199E+15	2024-09-08 19h05.17.898834 +0200	
single	dual	3	3	0	NORTE	XXSURXX	1111111	7	3	10	p	i	1	ZJTSHFP												0	0	0	0	0	8	8	8									0	3	3	3	4,85765E+15																	4,85665E+15	4,86426E+15	4,85765E+15																																										Prueba_Conductual_1	1	2024-09-08_19h04.40.217	AB	202421	6,00199E+15	2024-09-08 19h05.17.898834 +0200	
single	dual	4	4	0	NORTE	XXSURXX	1111111	7	3	10	p	i	1	GQKRPDL												0	0	0	0	0	8	8	8									0	4	4	5	4,86609E+16																	4,86472E+15	4,87267E+16	4,86609E+16																																										Prueba_Conductual_1	1	2024-09-08_19h04.40.217	AB	202421	6,00199E+15	2024-09-08 19h05.17.898834 +0200	
single	dual	5	5	0	NORTE	XXSURXX	1111111	7	3	10	p	i	1	YNPLRQW												0	0	0	0	0	8	8	8									0	5	5	7	4,8743E+15																	4,87314E+15	4,88106E+14	4,8743E+15																																										Prueba_Conductual_1	1	2024-09-08_19h04.40.217	AB	202421	6,00199E+15	2024-09-08 19h05.17.898834 +0200	
single	dual	6	6	0	NORTE	XXSURXX	1111111	7	3	10	p	i	1	WMYFTGJ												0	0	0	0	0	8	8	8									0	6	6	6	4,88273E+15																	4,88158E+15	4,88946E+15	4,88273E+15																																										Prueba_Conductual_1	1	2024-09-08_19h04.40.217	AB	202421	6,00199E+15	2024-09-08 19h05.17.898834 +0200	
single	dual	7	7	0	NORTE	XXSURXX	1111111	7	3	10	p	i	1	ZTFYDXH												0	0	0	0	0	8	8	8									0	7	7	0	4,89097E+16																	4,88996E+16	4,89771E+16	4,89097E+16																																										Prueba_Conductual_1	1	2024-09-08_19h04.40.217	AB	202421	6,00199E+15	2024-09-08 19h05.17.898834 +0200	
single	dual	8	8	0	NORTE	XXSURXX	1111111	7	3	10	p	i	1	YGLMSFQ												0	0	0	0	0	8	8	8									0	8	8	1	4,89932E+15																	4,89834E+15	4,90601E+15	4,89932E+15																																										Prueba_Conductual_1	1	2024-09-08_19h04.40.217	AB	202421	6,00199E+15	2024-09-08 19h05.17.898834 +0200	
single	dual	9	9	0	NORTE	XXSURXX	1111111	7	3	10	p	i	1	HLFPYXK												0	0	0	0	0	8	8	8									0	9	9	4	4,90768E+15																	4,9065E+16	4,91457E+15	4,90768E+15																																										Prueba_Conductual_1	1	2024-09-08_19h04.40.217	AB	202421	6,00199E+15	2024-09-08 19h05.17.898834 +0200	
single	dual	8	8	0	NORTE	XXSURXX	1111111	7	3	10	p	i	1		None	0	f	0	5,25719E+15	None						0	0	0	0	0	8	8	8																																									4,91651E+15	4,91652E+16	None	0	4,91653E+15	4,91686E+14	5,01774E+15	5,01774E+15	5,01774E+15	5,07128E+16	f	0	5,25719E+15	None																				Prueba_Conductual_1	1	2024-09-08_19h04.40.217	AB	202421	6,00199E+15	2024-09-08 19h05.17.898834 +0200	
single	dual	0	0	0	DEJAR	MARCHAR	9999999	7	1	12	p	i	1	YGLMSFQ												0	0	0	0	0	9	9	9	0	5	5	1	0	0	0	0					5,34027E+15											5,07182E+15	5,07282E+15	5,17118E+15	5,17297E+16	5,27774E+15	5,26959E+16	5,31315E+15	5,32117E+16	5,31445E+14	5,3229E+16	5,32316E+16	5,32954E+14	5,33896E+15	5,33896E+14																			5,30609E+16																		Prueba_Conductual_1	1	2024-09-08_19h04.40.217	AB	202421	6,00199E+15	2024-09-08 19h05.17.898834 +0200	
single	dual	0	0	0	DEJAR	MARCHAR	9999999	7	1	12	p	i	1	HQTYPJM												0	0	0	0	0	9	9	9									0	0	0	9	5,36244E+16																	5,36182E+15	5,36182E+14							5,33998E+15	5,34027E+15	5,34779E+15																																		Prueba_Conductual_1	1	2024-09-08_19h04.40.217	AB	202421	6,00199E+15	2024-09-08 19h05.17.898834 +0200	
single	dual	1	1	0	DEJAR	MARCHAR	9999999	7	1	12	p	i	1	ZJTSHFP												0	0	0	0	0	9	9	9									0	1	1	3	5,36244E+16																	5,36207E+15	5,36444E+15	5,36244E+16																																										Prueba_Conductual_1	1	2024-09-08_19h04.40.217	AB	202421	6,00199E+15	2024-09-08 19h05.17.898834 +0200	
single	dual	2	2	0	DEJAR	MARCHAR	9999999	7	1	12	p	i	1	GQKRPDL												0	0	0	0	0	9	9	9									0	2	2	5	5,36618E+15																	5,36477E+16	5,37279E+15	5,36618E+15																																										Prueba_Conductual_1	1	2024-09-08_19h04.40.217	AB	202421	6,00199E+15	2024-09-08 19h05.17.898834 +0200	
single	dual	3	3	0	DEJAR	MARCHAR	9999999	7	1	12	p	i	1	VYKXSPC												0	0	0	0	0	9	9	9									0	3	3	2	5,37446E+15																	5,37304E+15	5,38111E+16	5,37446E+15																																										Prueba_Conductual_1	1	2024-09-08_19h04.40.217	AB	202421	6,00199E+15	2024-09-08 19h05.17.898834 +0200	
single	dual	4	4	0	DEJAR	MARCHAR	9999999	7	1	12	p	i	1	WFXQGMY												0	0	0	0	0	9	9	9									0	4	4	11	5,3828E+15																	5,38134E+15	5,38953E+15	5,3828E+15																																										Prueba_Conductual_1	1	2024-09-08_19h04.40.217	AB	202421	6,00199E+15	2024-09-08 19h05.17.898834 +0200	
single	dual	5	5	0	DEJAR	MARCHAR	9999999	7	1	12	p	i	1	VFDMHQS												0	0	0	0	0	9	9	9									0	5	5	8	5,39117E+15																	5,38977E+15	5,39779E+15	5,39117E+15																																										Prueba_Conductual_1	1	2024-09-08_19h04.40.217	AB	202421	6,00199E+15	2024-09-08 19h05.17.898834 +0200	
single	dual	6	6	0	DEJAR	MARCHAR	9999999	7	1	12	p	i	1	ZTFYDXH												0	0	0	0	0	9	9	9									0	6	6	0	5,39945E+16																	5,39803E+15	5,40618E+16	5,39945E+16																																										Prueba_Conductual_1	1	2024-09-08_19h04.40.217	AB	202421	6,00199E+15	2024-09-08 19h05.17.898834 +0200	
single	dual	7	7	0	DEJAR	MARCHAR	9999999	7	1	12	p	i	1	YNPLRQW												0	0	0	0	0	9	9	9									0	7	7	7	5,40776E+15																	5,40645E+15	5,41457E+16	5,40776E+15																																										Prueba_Conductual_1	1	2024-09-08_19h04.40.217	AB	202421	6,00199E+15	2024-09-08 19h05.17.898834 +0200	
single	dual	8	8	0	DEJAR	MARCHAR	9999999	7	1	12	p	i	1	YGLMSFQ												0	0	0	0	0	9	9	9									0	8	8	1	5,41629E+15																	5,41526E+15	5,42291E+15	5,41629E+15																																										Prueba_Conductual_1	1	2024-09-08_19h04.40.217	AB	202421	6,00199E+15	2024-09-08 19h05.17.898834 +0200	
single	dual	9	9	0	DEJAR	MARCHAR	9999999	7	1	12	p	i	1	WMYFTGJ												0	0	0	0	0	9	9	9									0	9	9	6	5,42454E+16																	5,42331E+15	5,4312E+16	5,42454E+16																																										Prueba_Conductual_1	1	2024-09-08_19h04.40.217	AB	202421	6,00199E+15	2024-09-08 19h05.17.898834 +0200	
single	dual	10	10	0	DEJAR	MARCHAR	9999999	7	1	12	p	i	1	TJRHKVF												0	0	0	0	0	9	9	9									0	10	10	10	5,43289E+15																	5,43165E+15	5,43957E+16	5,43289E+15																																										Prueba_Conductual_1	1	2024-09-08_19h04.40.217	AB	202421	6,00199E+15	2024-09-08 19h05.17.898834 +0200	
single	dual	11	11	0	DEJAR	MARCHAR	9999999	7	1	12	p	i	1	HLFPYXK												0	0	0	0	0	9	9	9									0	11	11	4	5,44133E+16																	5,44019E+16	5,44791E+16	5,44133E+16																																										Prueba_Conductual_1	1	2024-09-08_19h04.40.217	AB	202421	6,00199E+15	2024-09-08 19h05.17.898834 +0200	
single	dual	9	9	0	DEJAR	MARCHAR	9999999	7	1	12	p	i	1		None	0	j	0	6,24813E+15	None						0	0	0	0	0	9	9	9																																									5,45013E+15	5,45015E+16	None	0	5,45016E+16	5,45051E+15	5,55132E+15	5,55132E+15	5,55132E+15	5,61479E+15	j	0	6,24813E+15	None																				Prueba_Conductual_1	1	2024-09-08_19h04.40.217	AB	202421	6,00199E+15	2024-09-08 19h05.17.898834 +0200	
single	dual	0	0	0	ORDEN	XCAOSXX	6666666	7	1	12	i	i	1	YGLMSFQ												0	0	0	0	0	10	10	10	0	5	5	1	0	0	0	0					5,88276E+16											5,61542E+15	5,61643E+15	5,71469E+15	5,71634E+15	5,82775E+15	5,81318E+15	5,85657E+15	5,86468E+14	5,85798E+16	5,86555E+15	5,86635E+15	5,87305E+16	5,88161E+16	5,88161E+14																			5,84968E+16																		Prueba_Conductual_1	1	2024-09-08_19h04.40.217	AB	202421	6,00199E+15	2024-09-08 19h05.17.898834 +0200	
single	dual	0	0	0	ORDEN	XCAOSXX	6666666	7	1	12	i	i	1	YNPLRQW												0	0	0	0	0	10	10	10									0	0	0	7	5,89802E+15																	5,89775E+14	5,8997E+16	5,89802E+15						5,88243E+15	5,88276E+16	5,88973E+15																	5,89802E+15																	Prueba_Conductual_1	1	2024-09-08_19h04.40.217	AB	202421	6,00199E+15	2024-09-08 19h05.17.898834 +0200	
single	dual	1	1	0	ORDEN	XCAOSXX	6666666	7	1	12	i	i	1	HLFPYXK												0	0	0	0	0	10	10	10									0	1	1	4	5,90136E+15																	5,89991E+16	5,90799E+15	5,90136E+15																																										Prueba_Conductual_1	1	2024-09-08_19h04.40.217	AB	202421	6,00199E+15	2024-09-08 19h05.17.898834 +0200	
single	dual	2	2	0	ORDEN	XCAOSXX	6666666	7	1	12	i	i	1	GQKRPDL												0	0	0	0	0	10	10	10									0	2	2	5	5,90981E+16																	5,90838E+15	5,91643E+15	5,90981E+16																																										Prueba_Conductual_1	1	2024-09-08_19h04.40.217	AB	202421	6,00199E+15	2024-09-08 19h05.17.898834 +0200	
single	dual	3	3	0	ORDEN	XCAOSXX	6666666	7	1	12	i	i	1	ZJTSHFP												0	0	0	0	0	10	10	10									0	3	3	3	5,91801E+15																	5,91665E+16	5,92467E+15	5,91801E+15																																										Prueba_Conductual_1	1	2024-09-08_19h04.40.217	AB	202421	6,00199E+15	2024-09-08 19h05.17.898834 +0200	
single	dual	4	4	0	ORDEN	XCAOSXX	6666666	7	1	12	i	i	1	VYKXSPC												0	0	0	0	0	10	10	10									0	4	4	2	5,92643E+15																	5,92489E+15	5,93307E+15	5,92643E+15																																										Prueba_Conductual_1	1	2024-09-08_19h04.40.217	AB	202421	6,00199E+15	2024-09-08 19h05.17.898834 +0200	
single	dual	5	5	0	ORDEN	XCAOSXX	6666666	7	1	12	i	i	1	HQTYPJM												0	0	0	0	0	10	10	10									0	5	5	9	5,93472E+16																	5,93329E+14	5,93978E+15	5,93472E+16																																										Prueba_Conductual_1	1	2024-09-08_19h04.40.217	AB	202421	6,00199E+15	2024-09-08 19h05.17.898834 +0200	
single	dual	6	6	0	ORDEN	XCAOSXX	6666666	7	1	12	i	i	1	YGLMSFQ												0	0	0	0	0	10	10	10									0	6	6	1	5,94137E+15																	5,94002E+15	5,94807E+15	5,94137E+15																																										Prueba_Conductual_1	1	2024-09-08_19h04.40.217	AB	202421	6,00199E+15	2024-09-08 19h05.17.898834 +0200	
single	dual	7	7	0	ORDEN	XCAOSXX	6666666	7	1	12	i	i	1	ZTFYDXH												0	0	0	0	0	10	10	10									0	7	7	0	5,94975E+14																	5,94829E+16	5,95643E+15	5,94975E+14																																										Prueba_Conductual_1	1	2024-09-08_19h04.40.217	AB	202421	6,00199E+15	2024-09-08 19h05.17.898834 +0200	
single	dual	8	8	0	ORDEN	XCAOSXX	6666666	7	1	12	i	i	1	WFXQGMY												0	0	0	0	0	10	10	10									0	8	8	11	5,95803E+15																	5,95681E+15	5,96476E+15	5,95803E+15																																										Prueba_Conductual_1	1	2024-09-08_19h04.40.217	AB	202421	6,00199E+15	2024-09-08 19h05.17.898834 +0200	
single	dual	9	9	0	ORDEN	XCAOSXX	6666666	7	1	12	i	i	1	VFDMHQS												0	0	0	0	0	10	10	10									0	9	9	8	5,96644E+16																	5,96508E+16	5,97321E+15	5,96644E+16																																										Prueba_Conductual_1	1	2024-09-08_19h04.40.217	AB	202421	6,00199E+15	2024-09-08 19h05.17.898834 +0200	
single	dual	10	10	0	ORDEN	XCAOSXX	6666666	7	1	12	i	i	1	TJRHKVF												0	0	0	0	0	10	10	10									0	10	10	10	5,97476E+15																	5,97364E+14	5,98143E+15	5,97476E+15																																										Prueba_Conductual_1	1	2024-09-08_19h04.40.217	AB	202421	6,00199E+15	2024-09-08 19h05.17.898834 +0200	
single	dual	11	11	0	ORDEN	XCAOSXX	6666666	7	1	12	i	i	1	WMYFTGJ												0	0	0	0	0	10	10	10									0	11	11	6	5,98312E+16																	5,98181E+15	5,9899E+15	5,98312E+16																																										Prueba_Conductual_1	1	2024-09-08_19h04.40.217	AB	202421	6,00199E+15	2024-09-08 19h05.17.898834 +0200	
single	dual	10	10	0	ORDEN	XCAOSXX	6666666	7	1	12	i	i	1		None	0	j	0	3,58981E+14	None						0	0	0	0	0	10	10	10																																									5,9925E+15	5,99251E+15	None	0	5,99252E+15	5,99295E+16	6,09323E+14	6,09323E+14	6,09323E+14	6,13015E+16	j	0	3,58981E+14	None																				Prueba_Conductual_1	1	2024-09-08_19h04.40.217	AB	202421	6,00199E+15	2024-09-08 19h05.17.898834 +0200	
single	dual	0	0	0	LANZAR	XCOGERX	5555555	10	7	3	p	i	1	VYKXSPC												0	0	0	0	0	11	11	11	0	8	8	5	0	0	0	2					6,42264E+15											6,13063E+16	6,13153E+15	6,23157E+15	6,23157E+15	6,34235E+15	6,33021E+16	6,39684E+15	6,40492E+15	6,39818E+16	6,4058E+15	6,40663E+14	6,41326E+15	6,42208E+15	6,42208E+14																			6,39818E+16																		Prueba_Conductual_1	1	2024-09-08_19h04.40.217	AB	202421	6,00199E+15	2024-09-08 19h05.17.898834 +0200	
single	dual	1	1	0	LANZAR	XCOGERX	5555555	10	7	3	p	i	1	HLFPYXK												0	0	0	0	0	11	11	11					0	1	1	4					6,42264E+15																							6,42234E+15	6,43005E+15																		6,42264E+15																			Prueba_Conductual_1	1	2024-09-08_19h04.40.217	AB	202421	6,00199E+15	2024-09-08 19h05.17.898834 +0200	
single	dual	2	2	0	LANZAR	XCOGERX	5555555	10	7	3	p	i	1	YGLMSFQ												0	0	0	0	0	11	11	11					0	2	2	1					6,4316E+15																							6,43041E+15	6,43824E+15																		6,4316E+15																			Prueba_Conductual_1	1	2024-09-08_19h04.40.217	AB	202421	6,00199E+15	2024-09-08 19h05.17.898834 +0200	
single	dual	3	3	0	LANZAR	XCOGERX	5555555	10	7	3	p	i	1	ZJTSHFP												0	0	0	0	0	11	11	11					0	3	3	3					6,43993E+15																							6,43845E+15	6,44662E+15																		6,43993E+15																			Prueba_Conductual_1	1	2024-09-08_19h04.40.217	AB	202421	6,00199E+15	2024-09-08 19h05.17.898834 +0200	
single	dual	4	4	0	LANZAR	XCOGERX	5555555	10	7	3	p	i	1	GQKRPDL												0	0	0	0	0	11	11	11					0	4	4	5					6,44819E+15																							6,44692E+15	6,45488E+15																		6,44819E+15																			Prueba_Conductual_1	1	2024-09-08_19h04.40.217	AB	202421	6,00199E+15	2024-09-08 19h05.17.898834 +0200	
single	dual	5	5	0	LANZAR	XCOGERX	5555555	10	7	3	p	i	1	ZTFYDXH												0	0	0	0	0	11	11	11					0	5	5	0					6,45663E+15																							6,45508E+14	646328125																		6,45663E+15																			Prueba_Conductual_1	1	2024-09-08_19h04.40.217	AB	202421	6,00199E+15	2024-09-08 19h05.17.898834 +0200	
single	dual	0	0	0	LANZAR	XCOGERX	5555555	10	7	3	p	i	1	YGLMSFQ												0	0	0	0	0	11	11	11									0	0	0	1	6,48044E+15																	6,47983E+15	6,47984E+15							6,46413E+15	6,46486E+15	6,47165E+15																																		Prueba_Conductual_1	1	2024-09-08_19h04.40.217	AB	202421	6,00199E+15	2024-09-08 19h05.17.898834 +0200	
single	dual	1	1	0	LANZAR	XCOGERX	5555555	10	7	3	p	i	1	VYKXSPC												0	0	0	0	0	11	11	11									0	1	1	2	6,48044E+15																	6,48015E+14	6,48826E+15	6,48044E+15																																										Prueba_Conductual_1	1	2024-09-08_19h04.40.217	AB	202421	6,00199E+15	2024-09-08 19h05.17.898834 +0200	
single	dual	2	2	0	LANZAR	XCOGERX	5555555	10	7	3	p	i	1	ZTFYDXH												0	0	0	0	0	11	11	11									0	2	2	0	6,48994E+15																	6,48846E+15	6,49667E+15	6,48994E+15																																										Prueba_Conductual_1	1	2024-09-08_19h04.40.217	AB	202421	6,00199E+15	2024-09-08 19h05.17.898834 +0200	
single	dual	11	11	0	LANZAR	XCOGERX	5555555	10	7	3	p	i	1		None	0	f	0	3,06535E+16	None						0	0	0	0	0	11	11	11																																									6,49731E+14	6,49732E+15	None	0	6,49732E+15	6,49827E+15	6,59847E+15	6,59847E+15	6,59847E+15	6,63028E+15	f	0	3,06535E+16	None																				Prueba_Conductual_1	1	2024-09-08_19h04.40.217	AB	202421	6,00199E+15	2024-09-08 19h05.17.898834 +0200	
single	dual	0	0	0	PERDER	HALLARX	0	10	1	9	i	i	1	VFDMHQS												0	0	0	0	0	12	12	12	0	8	8	8	0	0	0	0					6,92177E+15											6,63072E+15	6,63174E+15	6,73178E+15	6,73178E+15	6,84573E+15	6,83034E+15	6,89732E+15	6,90521E+15	6,89852E+15	6,90747E+15	6,9078E+15	6,9135E+15	6,92068E+14	6,92069E+15																																					Prueba_Conductual_1	1	2024-09-08_19h04.40.217	AB	202421	6,00199E+15	2024-09-08 19h05.17.898834 +0200	
single	dual	0	0	0	PERDER	HALLARX	0	10	1	9	i	i	1	VFDMHQS												0	0	0	0	0	12	12	12									0	0	0	8	6,93522E+15																	6,93497E+15	6,93847E+15	6,93522E+15						6,92152E+15	6,92177E+15	6,92847E+15																	6,93522E+15																	Prueba_Conductual_1	1	2024-09-08_19h04.40.217	AB	202421	6,00199E+15	2024-09-08 19h05.17.898834 +0200	
single	dual	1	1	0	PERDER	HALLARX	0	10	1	9	i	i	1	GQKRPDL												0	0	0	0	0	12	12	12									0	1	1	5	6,94014E+15																	6,93871E+15	6,94684E+15	6,94014E+15																																										Prueba_Conductual_1	1	2024-09-08_19h04.40.217	AB	202421	6,00199E+15	2024-09-08 19h05.17.898834 +0200	
single	dual	2	2	0	PERDER	HALLARX	0	10	1	9	i	i	1	ZTFYDXH												0	0	0	0	0	12	12	12									0	2	2	0	6,94847E+15																	6,94705E+15	6,9551E+15	6,94847E+15																																										Prueba_Conductual_1	1	2024-09-08_19h04.40.217	AB	202421	6,00199E+15	2024-09-08 19h05.17.898834 +0200	
single	dual	3	3	0	PERDER	HALLARX	0	10	1	9	i	i	1	VYKXSPC												0	0	0	0	0	12	12	12									0	3	3	2	6,95685E+15																	6,95532E+15	6,96351E+15	6,95685E+15																																										Prueba_Conductual_1	1	2024-09-08_19h04.40.217	AB	202421	6,00199E+15	2024-09-08 19h05.17.898834 +0200	
single	dual	4	4	0	PERDER	HALLARX	0	10	1	9	i	i	1	YNPLRQW												0	0	0	0	0	12	12	12									0	4	4	7	6,96511E+14																	6,96371E+15	6,97186E+15	6,96511E+14																																										Prueba_Conductual_1	1	2024-09-08_19h04.40.217	AB	202421	6,00199E+15	2024-09-08 19h05.17.898834 +0200	
single	dual	5	5	0	PERDER	HALLARX	0	10	1	9	i	i	1	HLFPYXK												0	0	0	0	0	12	12	12									0	5	5	4	6,97348E+14																	6,97207E+15	6,9802E+15	6,97348E+14																																										Prueba_Conductual_1	1	2024-09-08_19h04.40.217	AB	202421	6,00199E+15	2024-09-08 19h05.17.898834 +0200	
single	dual	6	6	0	PERDER	HALLARX	0	10	1	9	i	i	1	WMYFTGJ												0	0	0	0	0	12	12	12									0	6	6	6	6,9818E+15																	6,9804E+15	6,98848E+15	6,9818E+15																																										Prueba_Conductual_1	1	2024-09-08_19h04.40.217	AB	202421	6,00199E+15	2024-09-08 19h05.17.898834 +0200	
single	dual	7	7	0	PERDER	HALLARX	0	10	1	9	i	i	1	YGLMSFQ												0	0	0	0	0	12	12	12									0	7	7	1	6,99017E+15																	6,98869E+15	6,99682E+15	6,99017E+15																																										Prueba_Conductual_1	1	2024-09-08_19h04.40.217	AB	202421	6,00199E+15	2024-09-08 19h05.17.898834 +0200	
single	dual	8	8	0	PERDER	HALLARX	0	10	1	9	i	i	1	ZJTSHFP												0	0	0	0	0	12	12	12									0	8	8	3	6,99844E+15																	6,99704E+15	7,00514E+15	6,99844E+15																																										Prueba_Conductual_1	1	2024-09-08_19h04.40.217	AB	202421	6,00199E+15	2024-09-08 19h05.17.898834 +0200	
single	dual	12	12	0	PERDER	HALLARX	0	10	1	9	i	i	1		None	0	f	0	2,89003E+15	None						0	0	0	0	0	12	12	12																																									7,00582E+15	7,00583E+15	None	0	7,00583E+15	7,00685E+15	7,10686E+15	7,10686E+15	7,10686E+15	7,13702E+15	f	0	2,89003E+15	None																				Prueba_Conductual_1	1	2024-09-08_19h04.40.217	AB	202421	6,00199E+15	2024-09-08 19h05.17.898834 +0200	
single	dual	0	0	0	CERCA	XLEJOSX	8888888	10	3	7	i	i	1	ZTFYDXH												0	0	0	0	0	13	13	13	0	8	8	0	0	0	0	0					7,4366E+14											7,13723E+15	7,13859E+15	7,237E+13	7,23859E+15	7,3505E+15	7,33555E+15	7,40423E+15	7,41214E+15	7,40548E+15	7,41445E+15	7,41483E+15	7,42064E+15	7,43584E+15	7,43585E+15																																					Prueba_Conductual_1	1	2024-09-08_19h04.40.217	AB	202421	6,00199E+15	2024-09-08 19h05.17.898834 +0200	
single	dual	1	1	0	CERCA	XLEJOSX	8888888	10	3	7	i	i	1	YGLMSFQ												0	0	0	0	0	13	13	13					0	1	1	1					7,4366E+14																							7,43622E+15	7,43722E+15																		7,4366E+14																			Prueba_Conductual_1	1	2024-09-08_19h04.40.217	AB	202421	6,00199E+15	2024-09-08 19h05.17.898834 +0200	
single	dual	0	0	0	CERCA	XLEJOSX	8888888	10	3	7	i	i	1	ZJTSHFP												0	0	0	0	0	13	13	13									0	0	0	3	7,47118E+15																	7,46943E+15	7,46943E+14							7,43912E+15	7,43952E+15	7,44556E+15																																		Prueba_Conductual_1	1	2024-09-08_19h04.40.217	AB	202421	6,00199E+15	2024-09-08 19h05.17.898834 +0200	
single	dual	1	1	0	CERCA	XLEJOSX	8888888	10	3	7	i	i	1	ZTFYDXH												0	0	0	0	0	13	13	13									0	1	1	0	7,47118E+15																	7,46982E+15	7,46982E+14																																											Prueba_Conductual_1	1	2024-09-08_19h04.40.217	AB	202421	6,00199E+15	2024-09-08 19h05.17.898834 +0200	
single	dual	2	2	0	CERCA	XLEJOSX	8888888	10	3	7	i	i	1	HLFPYXK												0	0	0	0	0	13	13	13									0	2	2	4	7,47118E+15																	7,47038E+14	7,47039E+15																																											Prueba_Conductual_1	1	2024-09-08_19h04.40.217	AB	202421	6,00199E+15	2024-09-08 19h05.17.898834 +0200	
single	dual	3	3	0	CERCA	XLEJOSX	8888888	10	3	7	i	i	1	YGLMSFQ												0	0	0	0	0	13	13	13									0	3	3	1	7,47118E+15																	7,4708E+15	7,47882E+15	7,47118E+15																																										Prueba_Conductual_1	1	2024-09-08_19h04.40.217	AB	202421	6,00199E+15	2024-09-08 19h05.17.898834 +0200	
single	dual	4	4	0	CERCA	XLEJOSX	8888888	10	3	7	i	i	1	VYKXSPC												0	0	0	0	0	13	13	13									0	4	4	2	7,48049E+15																	7,47923E+15	7,48717E+15	7,48049E+15																																										Prueba_Conductual_1	1	2024-09-08_19h04.40.217	AB	202421	6,00199E+15	2024-09-08 19h05.17.898834 +0200	
single	dual	5	5	0	CERCA	XLEJOSX	8888888	10	3	7	i	i	1	GQKRPDL												0	0	0	0	0	13	13	13									0	5	5	5	7,48875E+15																	7,48739E+14	7,49537E+15	7,48875E+15																																										Prueba_Conductual_1	1	2024-09-08_19h04.40.217	AB	202421	6,00199E+15	2024-09-08 19h05.17.898834 +0200	
single	dual	6	6	0	CERCA	XLEJOSX	8888888	10	3	7	i	i	1	WMYFTGJ												0	0	0	0	0	13	13	13									0	6	6	6	7,49705E+15																	7,49558E+15	7,50376E+15	7,49705E+15																																										Prueba_Conductual_1	1	2024-09-08_19h04.40.217	AB	202421	6,00199E+15	2024-09-08 19h05.17.898834 +0200	
single	dual	13	13	0	CERCA	XLEJOSX	8888888	10	3	7	i	i	1		None	0	f	0	2,99093E+16	None						0	0	0	0	0	13	13	13																																									7,50446E+15	7,50447E+15	None	0	7,50447E+15	7,50537E+15	7,60542E+15	7,60542E+15	7,60542E+15	7,63564E+15	f	0	2,99093E+16	None																				Prueba_Conductual_1	1	2024-09-08_19h04.40.217	AB	202421	6,00199E+15	2024-09-08 19h05.17.898834 +0200	
single	dual	0	0	0	VIVIR	XMORIRX	9999999	10	1	9	p	i	1	GQKRPDL												0	0	0	0	0	14	14	14	0	8	8	5	0	0	0	0					7,92643E+15											7,63585E+15	7,63719E+15	7,73547E+15	7,73722E+15	7,84082E+15	7,83399E+15	7,90245E+15	7,91066E+14	7,90392E+14	7,91157E+14	7,91227E+15	7,91891E+15	7,92534E+15	7,92534E+15																			7,85392E+15																		Prueba_Conductual_1	1	2024-09-08_19h04.40.217	AB	202421	6,00199E+15	2024-09-08 19h05.17.898834 +0200	
single	dual	0	0	0	VIVIR	XMORIRX	9999999	10	1	9	p	i	1	WMYFTGJ												0	0	0	0	0	14	14	14									0	0	0	6	7,94057E+14																	7,94018E+15	7,9423E+15	7,94057E+14						7,92615E+15	7,92643E+15	7,93395E+15																																		Prueba_Conductual_1	1	2024-09-08_19h04.40.217	AB	202421	6,00199E+15	2024-09-08 19h05.17.898834 +0200	
single	dual	1	1	0	VIVIR	XMORIRX	9999999	10	1	9	p	i	1	ZJTSHFP												0	0	0	0	0	14	14	14									0	1	1	3	7,94396E+15																	7,9425E+15	7,95073E+15	7,94396E+15																																										Prueba_Conductual_1	1	2024-09-08_19h04.40.217	AB	202421	6,00199E+15	2024-09-08 19h05.17.898834 +0200	
single	dual	2	2	0	VIVIR	XMORIRX	9999999	10	1	9	p	i	1	YNPLRQW												0	0	0	0	0	14	14	14									0	2	2	7	7,95229E+15																	7,95096E+15	7,95897E+13	7,95229E+15																																										Prueba_Conductual_1	1	2024-09-08_19h04.40.217	AB	202421	6,00199E+15	2024-09-08 19h05.17.898834 +0200	
single	dual	3	3	0	VIVIR	XMORIRX	9999999	10	1	9	p	i	1	HLFPYXK												0	0	0	0	0	14	14	14									0	3	3	4	7,9606E+15																	7,95917E+14	7,9674E+15	7,9606E+15																																										Prueba_Conductual_1	1	2024-09-08_19h04.40.217	AB	202421	6,00199E+15	2024-09-08 19h05.17.898834 +0200	
single	dual	4	4	0	VIVIR	XMORIRX	9999999	10	1	9	p	i	1	VFDMHQS												0	0	0	0	0	14	14	14									0	4	4	8	7,96892E+15																	7,96761E+15	7,97564E+15	7,96892E+15																																										Prueba_Conductual_1	1	2024-09-08_19h04.40.217	AB	202421	6,00199E+15	2024-09-08 19h05.17.898834 +0200	
single	dual	5	5	0	VIVIR	XMORIRX	9999999	10	1	9	p	i	1	GQKRPDL												0	0	0	0	0	14	14	14									0	5	5	5	7,97731E+15																	7,97586E+15	7,98402E+15	7,97731E+15																																										Prueba_Conductual_1	1	2024-09-08_19h04.40.217	AB	202421	6,00199E+15	2024-09-08 19h05.17.898834 +0200	
single	dual	6	6	0	VIVIR	XMORIRX	9999999	10	1	9	p	i	1	VYKXSPC												0	0	0	0	0	14	14	14									0	6	6	2	7,98562E+15																	7,98423E+15	7,99228E+15	7,98562E+15																																										Prueba_Conductual_1	1	2024-09-08_19h04.40.217	AB	202421	6,00199E+15	2024-09-08 19h05.17.898834 +0200	
single	dual	7	7	0	VIVIR	XMORIRX	9999999	10	1	9	p	i	1	YGLMSFQ												0	0	0	0	0	14	14	14									0	7	7	1	7,99395E+14																	7,9925E+15	8,00068E+15	7,99395E+14																																										Prueba_Conductual_1	1	2024-09-08_19h04.40.217	AB	202421	6,00199E+15	2024-09-08 19h05.17.898834 +0200	
single	dual	8	8	0	VIVIR	XMORIRX	9999999	10	1	9	p	i	1	ZTFYDXH												0	0	0	0	0	14	14	14									0	8	8	0	8,00226E+15																	8,00093E+15	8,00903E+15	8,00226E+15																																										Prueba_Conductual_1	1	2024-09-08_19h04.40.217	AB	202421	6,00199E+15	2024-09-08 19h05.17.898834 +0200	
single	dual	14	14	0	VIVIR	XMORIRX	9999999	10	1	9	p	i	1		None	0	f	0	2,24053E+16	None						0	0	0	0	0	14	14	14																																									8,00975E+15	8,00976E+15	None	0	8,00976E+15	8,01069E+15	8,11073E+15	8,11073E+15	8,11073E+15	8,13414E+15	f	0	2,24053E+16	None																				Prueba_Conductual_1	1	2024-09-08_19h04.40.217	AB	202421	6,00199E+15	2024-09-08 19h05.17.898834 +0200	
single	dual	0	0	0	ACNÉ	XGRANOX	4444444	10	1	9	i	i	1	GQKRPDL												0	0	0	0	0	15	15	15	0	8	8	5	0	0	0	0					8,42486E+15											8,1345E+15	8,13575E+15	8,23412E+15	8,23575E+15	8,33923E+15	8,33251E+15	8,4011E+15	8,40915E+15	8,40248E+15	8,41005E+15	8,41091E+15	8,41752E+15	8,42362E+15	8,42362E+15																																					Prueba_Conductual_1	1	2024-09-08_19h04.40.217	AB	202421	6,00199E+15	2024-09-08 19h05.17.898834 +0200	
single	dual	0	0	0	ACNÉ	XGRANOX	4444444	10	1	9	i	i	1	ZTFYDXH												0	0	0	0	0	15	15	15									0	0	0	0	8,4392E+15																	8,43895E+15	8,44085E+15	8,4392E+15						8,42458E+15	8,42486E+15	8,4325E+15																																		Prueba_Conductual_1	1	2024-09-08_19h04.40.217	AB	202421	6,00199E+15	2024-09-08 19h05.17.898834 +0200	
single	dual	1	1	0	ACNÉ	XGRANOX	4444444	10	1	9	i	i	1	GQKRPDL												0	0	0	0	0	15	15	15									0	1	1	5	8,44252E+15																	8,44105E+15	8,44917E+15	8,44252E+15																																										Prueba_Conductual_1	1	2024-09-08_19h04.40.217	AB	202421	6,00199E+15	2024-09-08 19h05.17.898834 +0200	
single	dual	2	2	0	ACNÉ	XGRANOX	4444444	10	1	9	i	i	1	HLFPYXK												0	0	0	0	0	15	15	15									0	2	2	4	8,45084E+14																	8,44938E+15	8,45757E+15	8,45084E+14																																										Prueba_Conductual_1	1	2024-09-08_19h04.40.217	AB	202421	6,00199E+15	2024-09-08 19h05.17.898834 +0200	
single	dual	3	3	0	ACNÉ	XGRANOX	4444444	10	1	9	i	i	1	VFDMHQS												0	0	0	0	0	15	15	15									0	3	3	8	8,45918E+15																	8,45779E+15	8,46582E+15	8,45918E+15																																										Prueba_Conductual_1	1	2024-09-08_19h04.40.217	AB	202421	6,00199E+15	2024-09-08 19h05.17.898834 +0200	
single	dual	4	4	0	ACNÉ	XGRANOX	4444444	10	1	9	i	i	1	WMYFTGJ												0	0	0	0	0	15	15	15									0	4	4	6	8,46759E+15																	8,46603E+15	8,47431E+15	8,46759E+15																																										Prueba_Conductual_1	1	2024-09-08_19h04.40.217	AB	202421	6,00199E+15	2024-09-08 19h05.17.898834 +0200	
single	dual	5	5	0	ACNÉ	XGRANOX	4444444	10	1	9	i	i	1	ZJTSHFP												0	0	0	0	0	15	15	15									0	5	5	3	8,47584E+15																	8,47452E+15	8,48249E+15	8,47584E+15																																										Prueba_Conductual_1	1	2024-09-08_19h04.40.217	AB	202421	6,00199E+15	2024-09-08 19h05.17.898834 +0200	
single	dual	6	6	0	ACNÉ	XGRANOX	4444444	10	1	9	i	i	1	VYKXSPC												0	0	0	0	0	15	15	15									0	6	6	2	8,48422E+15																	8,4827E+15	8,49088E+15	8,48422E+15																																										Prueba_Conductual_1	1	2024-09-08_19h04.40.217	AB	202421	6,00199E+15	2024-09-08 19h05.17.898834 +0200	
single	dual	7	7	0	ACNÉ	XGRANOX	4444444	10	1	9	i	i	1	YNPLRQW												0	0	0	0	0	15	15	15									0	7	7	7	8,49249E+15																	8,4911E+15	8,49917E+15	8,49249E+15																																										Prueba_Conductual_1	1	2024-09-08_19h04.40.217	AB	202421	6,00199E+15	2024-09-08 19h05.17.898834 +0200	
single	dual	8	8	0	ACNÉ	XGRANOX	4444444	10	1	9	i	i	1	YGLMSFQ												0	0	0	0	0	15	15	15									0	8	8	1	8,5009E+15																	8,49941E+14	8,50759E+15	8,5009E+15																																										Prueba_Conductual_1	1	2024-09-08_19h04.40.217	AB	202421	6,00199E+15	2024-09-08 19h05.17.898834 +0200	
single	dual	15	15	0	ACNÉ	XGRANOX	4444444	10	1	9	i	i	1		None	0	f	0	2,57022E+15	None						0	0	0	0	0	15	15	15																																									8,5083E+15	8,50831E+15	None	0	8,50831E+15	8,50928E+15	8,60926E+15	8,60926E+15	8,60926E+15	8,63599E+15	f	0	2,57022E+15	None																				Prueba_Conductual_1	1	2024-09-08_19h04.40.217	AB	202421	6,00199E+15	2024-09-08 19h05.17.898834 +0200	
single	dual	0	0	0	CANASTA	XCESTAX	9999999	10	3	7	p	i	1	YGLMSFQ												0	0	0	0	0	16	16	16	0	8	8	3	0	0	0	1					8,9262E+15											8,63622E+13	8,63767E+15	8,73597E+15	8,73762E+15	8,84122E+14	8,83444E+15	8,90295E+15	8,91119E+14	8,90441E+15	8,91208E+15	8,91276E+15	8,91952E+14	8,92594E+15	8,92777E+15																		8,9262E+15																			Prueba_Conductual_1	1	2024-09-08_19h04.40.217	AB	202421	6,00199E+15	2024-09-08 19h05.17.898834 +0200	
single	dual	1	1	0	CANASTA	XCESTAX	9999999	10	3	7	p	i	1	ZTFYDXH												0	0	0	0	0	16	16	16					0	1	1	0					8,92941E+15																							8,92797E+15	8,93605E+14																		8,92941E+15																			Prueba_Conductual_1	1	2024-09-08_19h04.40.217	AB	202421	6,00199E+15	2024-09-08 19h05.17.898834 +0200	
single	dual	0	0	0	CANASTA	XCESTAX	9999999	10	3	7	p	i	1	GQKRPDL												0	0	0	0	0	16	16	16									0	0	0	5	8,95107E+15																	8,95077E+15	8,95272E+15	8,95107E+15						8,93693E+15	8,93778E+14	8,94441E+14																																		Prueba_Conductual_1	1	2024-09-08_19h04.40.217	AB	202421	6,00199E+15	2024-09-08 19h05.17.898834 +0200	
single	dual	1	1	0	CANASTA	XCESTAX	9999999	10	3	7	p	i	1	VYKXSPC												0	0	0	0	0	16	16	16									0	1	1	2	8,9544E+15																	8,95291E+15	8,96116E+15	8,9544E+15																																										Prueba_Conductual_1	1	2024-09-08_19h04.40.217	AB	202421	6,00199E+15	2024-09-08 19h05.17.898834 +0200	
single	dual	2	2	0	CANASTA	XCESTAX	9999999	10	3	7	p	i	1	ZTFYDXH												0	0	0	0	0	16	16	16									0	2	2	0	8,96271E+14																	8,96137E+15	8,96942E+14	8,96271E+14																																										Prueba_Conductual_1	1	2024-09-08_19h04.40.217	AB	202421	6,00199E+15	2024-09-08 19h05.17.898834 +0200	
single	dual	3	3	0	CANASTA	XCESTAX	9999999	10	3	7	p	i	1	WMYFTGJ												0	0	0	0	0	16	16	16									0	3	3	6	8,9712E+15																	8,96964E+15	8,97777E+15	8,9712E+15																																										Prueba_Conductual_1	1	2024-09-08_19h04.40.217	AB	202421	6,00199E+15	2024-09-08 19h05.17.898834 +0200	
single	dual	4	4	0	CANASTA	XCESTAX	9999999	10	3	7	p	i	1	YGLMSFQ												0	0	0	0	0	16	16	16									0	4	4	1	8,9794E+15																	8,97799E+15	8,98608E+15	8,9794E+15																																										Prueba_Conductual_1	1	2024-09-08_19h04.40.217	AB	202421	6,00199E+15	2024-09-08 19h05.17.898834 +0200	
single	dual	5	5	0	CANASTA	XCESTAX	9999999	10	3	7	p	i	1	HLFPYXK												0	0	0	0	0	16	16	16									0	5	5	4	8,98774E+15																	8,98629E+15	8,99443E+15	8,98774E+15																																										Prueba_Conductual_1	1	2024-09-08_19h04.40.217	AB	202421	6,00199E+15	2024-09-08 19h05.17.898834 +0200	
single	dual	6	6	0	CANASTA	XCESTAX	9999999	10	3	7	p	i	1	ZJTSHFP												0	0	0	0	0	16	16	16									0	6	6	3	8,99607E+15																	8,99469E+15	9,00276E+15	8,99607E+15																																										Prueba_Conductual_1	1	2024-09-08_19h04.40.217	AB	202421	6,00199E+15	2024-09-08 19h05.17.898834 +0200	
single	dual	16	16	0	CANASTA	XCESTAX	9999999	10	3	7	p	i	1		None	0	f	0	2,91184E+15	None						0	0	0	0	0	16	16	16																																									9,00348E+15	9,00348E+14	None	0	9,00349E+15	9,00445E+15	9,10448E+15	9,10448E+15	9,10448E+15	9,13462E+15	f	0	2,91184E+15	None																				Prueba_Conductual_1	1	2024-09-08_19h04.40.217	AB	202421	6,00199E+15	2024-09-08 19h05.17.898834 +0200	
single	dual	0	0	0	ARROZ	PAELLAX	7777777	10	7	3	p	i	1	ZTFYDXH												0	0	0	0	0	17	17	17	0	8	8	4	0	0	0	0					9,42511E+15											9,13483E+15	9,13611E+15	9,23616E+14	9,23616E+14	9,34134E+15	9,33465E+15	9,40154E+15	9,4096E+15	9,40294E+15	9,41063E+14	9,41127E+15	9,41805E+15	9,42481E+15	9,4263E+15																		9,42511E+15																			Prueba_Conductual_1	1	2024-09-08_19h04.40.217	AB	202421	6,00199E+15	2024-09-08 19h05.17.898834 +0200	
single	dual	1	1	0	ARROZ	PAELLAX	7777777	10	7	3	p	i	1	HLFPYXK												0	0	0	0	0	17	17	17					0	1	1	4					9,42801E+15																							9,42651E+15	9,43469E+15																		9,42801E+15																			Prueba_Conductual_1	1	2024-09-08_19h04.40.217	AB	202421	6,00199E+15	2024-09-08 19h05.17.898834 +0200	
single	dual	2	2	0	ARROZ	PAELLAX	7777777	10	7	3	p	i	1	GQKRPDL												0	0	0	0	0	17	17	17					0	2	2	5					9,43628E+15																							9,4349E+15	9,44296E+15																		9,43628E+15																			Prueba_Conductual_1	1	2024-09-08_19h04.40.217	AB	202421	6,00199E+15	2024-09-08 19h05.17.898834 +0200	
single	dual	3	3	0	ARROZ	PAELLAX	7777777	10	7	3	p	i	1	YGLMSFQ												0	0	0	0	0	17	17	17					0	3	3	1					9,44464E+15																							9,44318E+15	9,45143E+15																		9,44464E+15																			Prueba_Conductual_1	1	2024-09-08_19h04.40.217	AB	202421	6,00199E+15	2024-09-08 19h05.17.898834 +0200	
single	dual	4	4	0	ARROZ	PAELLAX	7777777	10	7	3	p	i	1	ZJTSHFP												0	0	0	0	0	17	17	17					0	4	4	3					9,45301E+15																							9,45165E+14	9,45964E+15																		9,45301E+15																			Prueba_Conductual_1	1	2024-09-08_19h04.40.217	AB	202421	6,00199E+15	2024-09-08 19h05.17.898834 +0200	
single	dual	5	5	0	ARROZ	PAELLAX	7777777	10	7	3	p	i	1	VYKXSPC												0	0	0	0	0	17	17	17					0	5	5	2					9,46139E+15																							9,45984E+15	9,46799E+15																		9,46139E+15																			Prueba_Conductual_1	1	2024-09-08_19h04.40.217	AB	202421	6,00199E+15	2024-09-08 19h05.17.898834 +0200	
single	dual	0	0	0	ARROZ	PAELLAX	7777777	10	7	3	p	i	1	YGLMSFQ												0	0	0	0	0	17	17	17									0	0	0	1	9,48297E+15																	9,48274E+15	9,48472E+15	9,48297E+15						9,46891E+15	9,4697E+15	9,4763E+15																																		Prueba_Conductual_1	1	2024-09-08_19h04.40.217	AB	202421	6,00199E+15	2024-09-08 19h05.17.898834 +0200	
single	dual	1	1	0	ARROZ	PAELLAX	7777777	10	7	3	p	i	1	ZTFYDXH												0	0	0	0	0	17	17	17									0	1	1	0	9,48632E+15																	9,48493E+15	9,49302E+14	9,48632E+15																																										Prueba_Conductual_1	1	2024-09-08_19h04.40.217	AB	202421	6,00199E+15	2024-09-08 19h05.17.898834 +0200	
single	dual	2	2	0	ARROZ	PAELLAX	7777777	10	7	3	p	i	1	VYKXSPC												0	0	0	0	0	17	17	17									0	2	2	2	9,49464E+15																	9,49322E+15	9,50138E+15	9,49464E+15																																										Prueba_Conductual_1	1	2024-09-08_19h04.40.217	AB	202421	6,00199E+15	2024-09-08 19h05.17.898834 +0200	
single	dual	17	17	0	ARROZ	PAELLAX	7777777	10	7	3	p	i	1		None	0	f	0	2,59114E+16	None						0	0	0	0	0	17	17	17																																									9,50206E+15	9,50206E+15	None	0	9,50207E+14	9,50298E+15	9,60301E+15	9,60301E+15	9,60301E+15	9,62977E+15	f	0	2,59114E+16	None																				Prueba_Conductual_1	1	2024-09-08_19h04.40.217	AB	202421	6,00199E+15	2024-09-08 19h05.17.898834 +0200	
single	dual	0	0	0	ABAJO	CUELLOX	3333333	7	1	12	p	p	0	ZTFYDXH												0	0	0	0	0	18	18	18	0	5	5	0	0	0	0	0					9,89599E+15											9,62998E+15	9,6315E+15	9,72981E+15	9,73149E+15	9,83507E+15	9,82828E+15	9,8718E+15	9,87985E+15	9,87314E+15	9,88087E+15	9,8816E+15	9,88827E+15	9,89486E+15	9,89486E+15																																					Prueba_Conductual_1	1	2024-09-08_19h04.40.217	AB	202421	6,00199E+15	2024-09-08 19h05.17.898834 +0200	
single	dual	0	0	0	ABAJO	CUELLOX	3333333	7	1	12	p	p	0	WMYFTGJ												0	0	0	0	0	18	18	18									0	0	0	6	9,91033E+15																	9,91005E+15	9,91159E+15	9,91033E+15						9,89564E+15	9,89599E+15	9,90323E+15																	9,91033E+15																	Prueba_Conductual_1	1	2024-09-08_19h04.40.217	AB	202421	6,00199E+15	2024-09-08 19h05.17.898834 +0200	
single	dual	1	1	0	ABAJO	CUELLOX	3333333	7	1	12	p	p	0	VYKXSPC												0	0	0	0	0	18	18	18									0	1	1	2	9,91317E+15																	9,91178E+15	9,91984E+15	9,91317E+15																																										Prueba_Conductual_1	1	2024-09-08_19h04.40.217	AB	202421	6,00199E+15	2024-09-08 19h05.17.898834 +0200	
single	dual	2	2	0	ABAJO	CUELLOX	3333333	7	1	12	p	p	0	YNPLRQW												0	0	0	0	0	18	18	18									0	2	2	7	9,92152E+15																	9,92006E+15	9,92831E+15	9,92152E+15																																										Prueba_Conductual_1	1	2024-09-08_19h04.40.217	AB	202421	6,00199E+15	2024-09-08 19h05.17.898834 +0200	
single	dual	3	3	0	ABAJO	CUELLOX	3333333	7	1	12	p	p	0	ZTFYDXH												0	0	0	0	0	18	18	18									0	3	3	0	9,9299E+15																	9,92869E+15	9,93663E+15	9,9299E+15																																										Prueba_Conductual_1	1	2024-09-08_19h04.40.217	AB	202421	6,00199E+15	2024-09-08 19h05.17.898834 +0200	
single	dual	4	4	0	ABAJO	CUELLOX	3333333	7	1	12	p	p	0	YGLMSFQ												0	0	0	0	0	18	18	18									0	4	4	1	9,93824E+15																	9,93705E+15	9,94493E+15	9,93824E+15																																										Prueba_Conductual_1	1	2024-09-08_19h04.40.217	AB	202421	6,00199E+15	2024-09-08 19h05.17.898834 +0200	
single	dual	5	5	0	ABAJO	CUELLOX	3333333	7	1	12	p	p	0	ZJTSHFP												0	0	0	0	0	18	18	18									0	5	5	3	9,94655E+15																	9,94517E+15	9,95322E+15	9,94655E+15																																										Prueba_Conductual_1	1	2024-09-08_19h04.40.217	AB	202421	6,00199E+15	2024-09-08 19h05.17.898834 +0200	
single	dual	6	6	0	ABAJO	CUELLOX	3333333	7	1	12	p	p	0	WFXQGMY												0	0	0	0	0	18	18	18									0	6	6	11	9,95497E+15																	9,95361E+15	9,9616E+13	9,95497E+15																																										Prueba_Conductual_1	1	2024-09-08_19h04.40.217	AB	202421	6,00199E+15	2024-09-08 19h05.17.898834 +0200	
single	dual	7	7	0	ABAJO	CUELLOX	3333333	7	1	12	p	p	0	VFDMHQS												0	0	0	0	0	18	18	18									0	7	7	8	9,96325E+14																	9,96189E+15	9,9699E+15	9,96325E+14																																										Prueba_Conductual_1	1	2024-09-08_19h04.40.217	AB	202421	6,00199E+15	2024-09-08 19h05.17.898834 +0200	
single	dual	8	8	0	ABAJO	CUELLOX	3333333	7	1	12	p	p	0	HQTYPJM												0	0	0	0	0	18	18	18									0	8	8	9	9,97157E+15																	9,97016E+15	9,97836E+15	9,97157E+15																																										Prueba_Conductual_1	1	2024-09-08_19h04.40.217	AB	202421	6,00199E+15	2024-09-08 19h05.17.898834 +0200	
single	dual	9	9	0	ABAJO	CUELLOX	3333333	7	1	12	p	p	0	GQKRPDL												0	0	0	0	0	18	18	18									0	9	9	5	9,97987E+15																	9,9786E+15	9,9866E+15	9,97987E+15																																										Prueba_Conductual_1	1	2024-09-08_19h04.40.217	AB	202421	6,00199E+15	2024-09-08 19h05.17.898834 +0200	
single	dual	10	10	0	ABAJO	CUELLOX	3333333	7	1	12	p	p	0	TJRHKVF												0	0	0	0	0	18	18	18									0	10	10	10	9,98823E+15																	9,98683E+14	9,99497E+15	9,98823E+15																																										Prueba_Conductual_1	1	2024-09-08_19h04.40.217	AB	202421	6,00199E+15	2024-09-08 19h05.17.898834 +0200	
single	dual	11	11	0	ABAJO	CUELLOX	3333333	7	1	12	p	p	0	HLFPYXK												0	0	0	0	0	18	18	18									0	11	11	4	9,99656E+15																	9,99537E+15	1,00033E+16	9,99656E+15																																										Prueba_Conductual_1	1	2024-09-08_19h04.40.217	AB	202421	6,00199E+15	2024-09-08 19h05.17.898834 +0200	
single	dual	18	18	0	ABAJO	CUELLOX	3333333	7	1	12	p	p	0		None	0	j	0	3,17108E+16	None						0	0	0	0	0	18	18	18																																									1,00053E+16	1,00053E+16	None	0	1,00053E+16	1,00056E+16	1,01066E+16	1,01066E+16	1,01066E+16	1,01386E+16	j	0	3,17108E+16	None																				Prueba_Conductual_1	1	2024-09-08_19h04.40.217	AB	202421	6,00199E+15	2024-09-08 19h05.17.898834 +0200	
single	dual	0	0	0	TEATRO	XMANOXX	4444444	7	7	6	i	p	0	HLFPYXK												0	0	0	0	0	19	19	19	0	5	5	4	0	0	0	4					1,0406E+16											1,0139E+16	1,01401E+16	1,02388E+16	1,02402E+16	1,03576E+16	1,03386E+16	1,0382E+16	1,03885E+16	1,03834E+16	1,03894E+15	1,039E+16	1,03968E+16	1,04055E+16	1,04056E+16																																					Prueba_Conductual_1	1	2024-09-08_19h04.40.217	AB	202421	6,00199E+15	2024-09-08 19h05.17.898834 +0200	
single	dual	1	1	0	TEATRO	XMANOXX	4444444	7	7	6	i	p	0	GQKRPDL												0	0	0	0	0	19	19	19					0	1	1	5					1,0406E+16																							1,04057E+16	1,04135E+16																		1,0406E+16																			Prueba_Conductual_1	1	2024-09-08_19h04.40.217	AB	202421	6,00199E+15	2024-09-08 19h05.17.898834 +0200	
single	dual	2	2	0	TEATRO	XMANOXX	4444444	7	7	6	i	p	0	YGLMSFQ												0	0	0	0	0	19	19	19					0	2	2	1					1,04151E+14																							1,04137E+16	1,04219E+16																		1,04151E+14																			Prueba_Conductual_1	1	2024-09-08_19h04.40.217	AB	202421	6,00199E+15	2024-09-08 19h05.17.898834 +0200	
single	dual	3	3	0	TEATRO	XMANOXX	4444444	7	7	6	i	p	0	ZTFYDXH												0	0	0	0	0	19	19	19					0	3	3	0					1,04235E+15																							1,04222E+16	1,04301E+16																		1,04235E+15																			Prueba_Conductual_1	1	2024-09-08_19h04.40.217	AB	202421	6,00199E+15	2024-09-08 19h05.17.898834 +0200	
single	dual	4	4	0	TEATRO	XMANOXX	4444444	7	7	6	i	p	0	ZJTSHFP												0	0	0	0	0	19	19	19					0	4	4	3					1,04318E+16																							1,04303E+16	1,04385E+16																		1,04318E+16																			Prueba_Conductual_1	1	2024-09-08_19h04.40.217	AB	202421	6,00199E+15	2024-09-08 19h05.17.898834 +0200	
single	dual	5	5	0	TEATRO	XMANOXX	4444444	7	7	6	i	p	0	VYKXSPC												0	0	0	0	0	19	19	19					0	5	5	2					1,04401E+16																							1,04387E+14	1,04468E+16																		1,04401E+16																			Prueba_Conductual_1	1	2024-09-08_19h04.40.217	AB	202421	6,00199E+15	2024-09-08 19h05.17.898834 +0200	
single	dual	0	0	0	TEATRO	XMANOXX	4444444	7	7	6	i	p	0	HLFPYXK												0	0	0	0	0	19	19	19									0	0	0	4	1,04651E+16																	1,04644E+16	1,04644E+16							1,04485E+15	1,04488E+15	1,04552E+16																																		Prueba_Conductual_1	1	2024-09-08_19h04.40.217	AB	202421	6,00199E+15	2024-09-08 19h05.17.898834 +0200	
single	dual	1	1	0	TEATRO	XMANOXX	4444444	7	7	6	i	p	0	VYKXSPC												0	0	0	0	0	19	19	19									0	1	1	2	1,04651E+16																	1,04647E+16	1,04718E+16	1,04651E+16																																										Prueba_Conductual_1	1	2024-09-08_19h04.40.217	AB	202421	6,00199E+15	2024-09-08 19h05.17.898834 +0200	
single	dual	2	2	0	TEATRO	XMANOXX	4444444	7	7	6	i	p	0	ZJTSHFP												0	0	0	0	0	19	19	19									0	2	2	3	1,04734E+16																	1,0472E+16	1,04801E+16	1,04734E+16																																										Prueba_Conductual_1	1	2024-09-08_19h04.40.217	AB	202421	6,00199E+15	2024-09-08 19h05.17.898834 +0200	
single	dual	3	3	0	TEATRO	XMANOXX	4444444	7	7	6	i	p	0	YGLMSFQ												0	0	0	0	0	19	19	19									0	3	3	1	1,04819E+16																	1,04803E+16	1,04888E+16	1,04819E+16																																										Prueba_Conductual_1	1	2024-09-08_19h04.40.217	AB	202421	6,00199E+15	2024-09-08 19h05.17.898834 +0200	
single	dual	4	4	0	TEATRO	XMANOXX	4444444	7	7	6	i	p	0	ZTFYDXH												0	0	0	0	0	19	19	19									0	4	4	0	1,04903E+16																	1,04893E+16	1,04969E+15	1,04903E+16																																										Prueba_Conductual_1	1	2024-09-08_19h04.40.217	AB	202421	6,00199E+15	2024-09-08 19h05.17.898834 +0200	
single	dual	5	5	0	TEATRO	XMANOXX	4444444	7	7	6	i	p	0	GQKRPDL												0	0	0	0	0	19	19	19									0	5	5	5	1,04986E+16																	1,04974E+15	1,05052E+16	1,04986E+16																																										Prueba_Conductual_1	1	2024-09-08_19h04.40.217	AB	202421	6,00199E+15	2024-09-08 19h05.17.898834 +0200	
single	dual	19	19	0	TEATRO	XMANOXX	4444444	7	7	6	i	p	0		None	0	j	0	2,81604E+15	None						0	0	0	0	0	19	19	19																																									1,05061E+16	1,05061E+15	None	0	1,05062E+16	1,05068E+16	1,06068E+16	1,06068E+16	1,06068E+16	1,06357E+16	j	0	2,81604E+15	None																				Prueba_Conductual_1	1	2024-09-08_19h04.40.217	AB	202421	6,00199E+15	2024-09-08 19h05.17.898834 +0200	
single	dual	0	0	0	PEAJE	VIENTOX	4444444	7	7	6	i	p	0	ZJTSHFP												0	0	0	0	0	20	20	20	0	5	5	5	0	0	0	3					1,09021E+15											1,06361E+16	1,06369E+16	1,0737E+16	1,0737E+16	1,08484E+16	1,08356E+16	1,08789E+15	1,0887E+16	1,08803E+16	1,08878E+16	1,08887E+16	1,08953E+16	1,09018E+15	1,09036E+15																		1,09021E+15																			Prueba_Conductual_1	1	2024-09-08_19h04.40.217	AB	202421	6,00199E+15	2024-09-08 19h05.17.898834 +0200	
single	dual	1	1	0	PEAJE	VIENTOX	4444444	7	7	6	i	p	0	YGLMSFQ												0	0	0	0	0	20	20	20					0	1	1	1					1,09053E+15																							1,09038E+16	1,0912E+16																		1,09053E+15																			Prueba_Conductual_1	1	2024-09-08_19h04.40.217	AB	202421	6,00199E+15	2024-09-08 19h05.17.898834 +0200	
single	dual	2	2	0	PEAJE	VIENTOX	4444444	7	7	6	i	p	0	GQKRPDL												0	0	0	0	0	20	20	20					0	2	2	5					1,09137E+16																							1,09122E+16	1,09203E+16																		1,09137E+16																			Prueba_Conductual_1	1	2024-09-08_19h04.40.217	AB	202421	6,00199E+15	2024-09-08 19h05.17.898834 +0200	
single	dual	3	3	0	PEAJE	VIENTOX	4444444	7	7	6	i	p	0	ZTFYDXH												0	0	0	0	0	20	20	20					0	3	3	0					1,09221E+16																							1,09205E+16	1,09271E+16																		1,09221E+16																			Prueba_Conductual_1	1	2024-09-08_19h04.40.217	AB	202421	6,00199E+15	2024-09-08 19h05.17.898834 +0200	
single	dual	4	4	0	PEAJE	VIENTOX	4444444	7	7	6	i	p	0	VYKXSPC												0	0	0	0	0	20	20	20					0	4	4	2					1,09287E+15																							1,09273E+16	1,09354E+16																		1,09287E+15																			Prueba_Conductual_1	1	2024-09-08_19h04.40.217	AB	202421	6,00199E+15	2024-09-08 19h05.17.898834 +0200	
single	dual	5	5	0	PEAJE	VIENTOX	4444444	7	7	6	i	p	0	HLFPYXK												0	0	0	0	0	20	20	20					0	5	5	4					1,0937E+16																							1,09357E+16	1,09437E+16																		1,0937E+16																			Prueba_Conductual_1	1	2024-09-08_19h04.40.217	AB	202421	6,00199E+15	2024-09-08 19h05.17.898834 +0200	
single	dual	0	0	0	PEAJE	VIENTOX	4444444	7	7	6	i	p	0	VYKXSPC												0	0	0	0	0	20	20	20									0	0	0	2	1,09589E+16																	1,09586E+16	1,09603E+16	1,09589E+16						1,09446E+16	1,09454E+15	1,09521E+16																																		Prueba_Conductual_1	1	2024-09-08_19h04.40.217	AB	202421	6,00199E+15	2024-09-08 19h05.17.898834 +0200	
single	dual	1	1	0	PEAJE	VIENTOX	4444444	7	7	6	i	p	0	GQKRPDL												0	0	0	0	0	20	20	20									0	1	1	5	1,0962E+16																	1,09605E+16	1,09688E+16	1,0962E+16																																										Prueba_Conductual_1	1	2024-09-08_19h04.40.217	AB	202421	6,00199E+15	2024-09-08 19h05.17.898834 +0200	
single	dual	2	2	0	PEAJE	VIENTOX	4444444	7	7	6	i	p	0	HLFPYXK												0	0	0	0	0	20	20	20									0	2	2	4	1,09703E+16																	1,0969E+16	1,0977E+15	1,09703E+16																																										Prueba_Conductual_1	1	2024-09-08_19h04.40.217	AB	202421	6,00199E+15	2024-09-08 19h05.17.898834 +0200	
single	dual	3	3	0	PEAJE	VIENTOX	4444444	7	7	6	i	p	0	YGLMSFQ												0	0	0	0	0	20	20	20									0	3	3	1	1,09788E+16																	1,09772E+16	1,09854E+16	1,09788E+16																																										Prueba_Conductual_1	1	2024-09-08_19h04.40.217	AB	202421	6,00199E+15	2024-09-08 19h05.17.898834 +0200	
single	dual	4	4	0	PEAJE	VIENTOX	4444444	7	7	6	i	p	0	ZJTSHFP												0	0	0	0	0	20	20	20									0	4	4	3	1,09871E+16																	1,09856E+16	1,09937E+16	1,09871E+16																																										Prueba_Conductual_1	1	2024-09-08_19h04.40.217	AB	202421	6,00199E+15	2024-09-08 19h05.17.898834 +0200	
single	dual	5	5	0	PEAJE	VIENTOX	4444444	7	7	6	i	p	0	ZTFYDXH												0	0	0	0	0	20	20	20									0	5	5	0	1,09954E+16																	1,09939E+16	1,10021E+16	1,09954E+16																																										Prueba_Conductual_1	1	2024-09-08_19h04.40.217	AB	202421	6,00199E+15	2024-09-08 19h05.17.898834 +0200	
single	dual	20	20	0	PEAJE	VIENTOX	4444444	7	7	6	i	p	0		None	0	j	0	2,18239E+16	None						0	0	0	0	0	20	20	20																																									1,10028E+16	1,10028E+16	None	0	1,10028E+16	1,10037E+16	1,11037E+16	1,11037E+16	1,11037E+16	1,11272E+16	j	0	2,18239E+16	None																				Prueba_Conductual_1	1	2024-09-08_19h04.40.217	AB	202421	6,00199E+15	2024-09-08 19h05.17.898834 +0200	
single	dual	0	0	0	TERNERO	XVACAXX	8888888	7	1	12	i	i	1	VYKXSPC												0	0	0	0	0	21	21	21	0	5	5	2	0	0	0	0					1,13932E+16											1,11274E+16	1,11287E+16	1,12272E+16	1,12288E+16	1,13325E+16	1,13256E+16	1,13692E+16	1,13772E+16	1,13706E+16	1,13781E+16	1,13789E+16	1,13856E+16	1,13921E+16	1,13921E+16																																					Prueba_Conductual_1	1	2024-09-08_19h04.40.217	AB	202421	6,00199E+15	2024-09-08 19h05.17.898834 +0200	
single	dual	0	0	0	TERNERO	XVACAXX	8888888	7	1	12	i	i	1	HQTYPJM												0	0	0	0	0	21	21	21									0	0	0	9	1,14077E+16																	1,14074E+16	1,14089E+15	1,14077E+16						1,13929E+16	1,13932E+16	1,14006E+16																																		Prueba_Conductual_1	1	2024-09-08_19h04.40.217	AB	202421	6,00199E+15	2024-09-08 19h05.17.898834 +0200	
single	dual	1	1	0	TERNERO	XVACAXX	8888888	7	1	12	i	i	1	WMYFTGJ												0	0	0	0	0	21	21	21									0	1	1	6	1,14106E+16																	1,14091E+16	1,14172E+16	1,14106E+16																																										Prueba_Conductual_1	1	2024-09-08_19h04.40.217	AB	202421	6,00199E+15	2024-09-08 19h05.17.898834 +0200	
single	dual	2	2	0	TERNERO	XVACAXX	8888888	7	1	12	i	i	1	VFDMHQS												0	0	0	0	0	21	21	21									0	2	2	8	1,14189E+16																	1,14174E+16	1,14256E+16	1,14189E+16																																										Prueba_Conductual_1	1	2024-09-08_19h04.40.217	AB	202421	6,00199E+15	2024-09-08 19h05.17.898834 +0200	
single	dual	3	3	0	TERNERO	XVACAXX	8888888	7	1	12	i	i	1	ZTFYDXH												0	0	0	0	0	21	21	21									0	3	3	0	1,14272E+16																	1,14258E+16	1,14339E+15	1,14272E+16																																										Prueba_Conductual_1	1	2024-09-08_19h04.40.217	AB	202421	6,00199E+15	2024-09-08 19h05.17.898834 +0200	
single	dual	4	4	0	TERNERO	XVACAXX	8888888	7	1	12	i	i	1	GQKRPDL												0	0	0	0	0	21	21	21									0	4	4	5	1,14356E+16																	1,14341E+16	1,14424E+16	1,14356E+16																																										Prueba_Conductual_1	1	2024-09-08_19h04.40.217	AB	202421	6,00199E+15	2024-09-08 19h05.17.898834 +0200	
single	dual	5	5	0	TERNERO	XVACAXX	8888888	7	1	12	i	i	1	HLFPYXK												0	0	0	0	0	21	21	21									0	5	5	4	1,14439E+16																	1,14426E+16	1,14505E+16	1,14439E+16																																										Prueba_Conductual_1	1	2024-09-08_19h04.40.217	AB	202421	6,00199E+15	2024-09-08 19h05.17.898834 +0200	
single	dual	6	6	0	TERNERO	XVACAXX	8888888	7	1	12	i	i	1	YNPLRQW												0	0	0	0	0	21	21	21									0	6	6	7	1,14522E+16																	1,14508E+16	1,1459E+15	1,14522E+16																																										Prueba_Conductual_1	1	2024-09-08_19h04.40.217	AB	202421	6,00199E+15	2024-09-08 19h05.17.898834 +0200	
single	dual	7	7	0	TERNERO	XVACAXX	8888888	7	1	12	i	i	1	WFXQGMY												0	0	0	0	0	21	21	21									0	7	7	11	1,14606E+16																	1,14592E+16	1,14672E+16	1,14606E+16																																										Prueba_Conductual_1	1	2024-09-08_19h04.40.217	AB	202421	6,00199E+15	2024-09-08 19h05.17.898834 +0200	
single	dual	8	8	0	TERNERO	XVACAXX	8888888	7	1	12	i	i	1	VYKXSPC												0	0	0	0	0	21	21	21									0	8	8	2	1,14689E+16																	1,14675E+15	1,14756E+16	1,14689E+16																																										Prueba_Conductual_1	1	2024-09-08_19h04.40.217	AB	202421	6,00199E+15	2024-09-08 19h05.17.898834 +0200	
single	dual	9	9	0	TERNERO	XVACAXX	8888888	7	1	12	i	i	1	YGLMSFQ												0	0	0	0	0	21	21	21									0	9	9	1	1,14772E+16																	1,14758E+16	1,14839E+16	1,14772E+16																																										Prueba_Conductual_1	1	2024-09-08_19h04.40.217	AB	202421	6,00199E+15	2024-09-08 19h05.17.898834 +0200	
single	dual	10	10	0	TERNERO	XVACAXX	8888888	7	1	12	i	i	1	TJRHKVF												0	0	0	0	0	21	21	21									0	10	10	10	1,14856E+15																	1,14842E+16	1,14923E+15	1,14856E+15																																										Prueba_Conductual_1	1	2024-09-08_19h04.40.217	AB	202421	6,00199E+15	2024-09-08 19h05.17.898834 +0200	
single	dual	11	11	0	TERNERO	XVACAXX	8888888	7	1	12	i	i	1	ZJTSHFP												0	0	0	0	0	21	21	21									0	11	11	3	1,14939E+16																	1,14925E+16	1,15006E+16	1,14939E+16																																										Prueba_Conductual_1	1	2024-09-08_19h04.40.217	AB	202421	6,00199E+15	2024-09-08 19h05.17.898834 +0200	
single	dual	21	21	0	TERNERO	XVACAXX	8888888	7	1	12	i	i	1		None	0	f	0	2,68434E+16	None						0	0	0	0	0	21	21	21																																									1,15013E+14	1,15013E+15	None	0	1,15014E+16	1,15023E+16	1,16023E+16	1,16023E+16	1,16023E+16	1,16307E+16	f	0	2,68434E+16	None																				Prueba_Conductual_1	1	2024-09-08_19h04.40.217	AB	202421	6,00199E+15	2024-09-08 19h05.17.898834 +0200	
single	dual	0	0	0	COMIC	VIÑETAX	2222222	10	3	7	i	i	1	YGLMSFQ												0	0	0	0	0	22	22	22	0	8	8	3	0	0	0	1					1,1921E+16											1,16309E+16	1,16324E+16	1,17307E+16	1,17324E+15	1,18361E+16	1,18292E+16	1,18977E+16	1,19058E+16	1,18991E+14	1,19069E+16	1,19075E+16	1,19141E+16	1,19207E+16	1,19225E+16																		1,1921E+16																			Prueba_Conductual_1	1	2024-09-08_19h04.40.217	AB	202421	6,00199E+15	2024-09-08 19h05.17.898834 +0200	
single	dual	1	1	0	COMIC	VIÑETAX	2222222	10	3	7	i	i	1	ZTFYDXH												0	0	0	0	0	22	22	22					0	1	1	0					1,19241E+15																							1,19227E+16	1,19308E+16																		1,19241E+15																			Prueba_Conductual_1	1	2024-09-08_19h04.40.217	AB	202421	6,00199E+15	2024-09-08 19h05.17.898834 +0200	
single	dual	0	0	0	COMIC	VIÑETAX	2222222	10	3	7	i	i	1	VYKXSPC												0	0	0	0	0	22	22	22									0	0	0	2	1,19459E+16																	1,19456E+16	1,19474E+16	1,19459E+16						1,19319E+16	1,19325E+16	1,19392E+16																																		Prueba_Conductual_1	1	2024-09-08_19h04.40.217	AB	202421	6,00199E+15	2024-09-08 19h05.17.898834 +0200	
single	dual	1	1	0	COMIC	VIÑETAX	2222222	10	3	7	i	i	1	GQKRPDL												0	0	0	0	0	22	22	22									0	1	1	5	1,19492E+16																	1,19476E+16	1,19559E+16	1,19492E+16																																										Prueba_Conductual_1	1	2024-09-08_19h04.40.217	AB	202421	6,00199E+15	2024-09-08 19h05.17.898834 +0200	
single	dual	2	2	0	COMIC	VIÑETAX	2222222	10	3	7	i	i	1	YGLMSFQ												0	0	0	0	0	22	22	22									0	2	2	1	1,19574E+16																	1,19562E+16	1,19641E+15	1,19574E+16																																										Prueba_Conductual_1	1	2024-09-08_19h04.40.217	AB	202421	6,00199E+15	2024-09-08 19h05.17.898834 +0200	
single	dual	3	3	0	COMIC	VIÑETAX	2222222	10	3	7	i	i	1	ZJTSHFP												0	0	0	0	0	22	22	22									0	3	3	3	1,19658E+15																	1,19643E+16	1,19725E+16	1,19658E+15																																										Prueba_Conductual_1	1	2024-09-08_19h04.40.217	AB	202421	6,00199E+15	2024-09-08 19h05.17.898834 +0200	
single	dual	4	4	0	COMIC	VIÑETAX	2222222	10	3	7	i	i	1	WMYFTGJ												0	0	0	0	0	22	22	22									0	4	4	6	1,19742E+15																	1,19727E+16	1,19808E+14	1,19742E+15																																										Prueba_Conductual_1	1	2024-09-08_19h04.40.217	AB	202421	6,00199E+15	2024-09-08 19h05.17.898834 +0200	
single	dual	5	5	0	COMIC	VIÑETAX	2222222	10	3	7	i	i	1	HLFPYXK												0	0	0	0	0	22	22	22									0	5	5	4	1,19825E+16																	1,1981E+16	1,19892E+16	1,19825E+16																																										Prueba_Conductual_1	1	2024-09-08_19h04.40.217	AB	202421	6,00199E+15	2024-09-08 19h05.17.898834 +0200	
single	dual	6	6	0	COMIC	VIÑETAX	2222222	10	3	7	i	i	1	ZTFYDXH												0	0	0	0	0	22	22	22									0	6	6	0	1,19908E+16																	1,19895E+16	1,19975E+16	1,19908E+16																																										Prueba_Conductual_1	1	2024-09-08_19h04.40.217	AB	202421	6,00199E+15	2024-09-08 19h05.17.898834 +0200	
single	dual	22	22	0	COMIC	VIÑETAX	2222222	10	3	7	i	i	1		None	0	f	0	2,8091E+16	None						0	0	0	0	0	22	22	22																																									1,19982E+16	1,19982E+16	None	0	1,19982E+16	1,19992E+16	1,20993E+16	1,20993E+16	1,20993E+16	1,21276E+16	f	0	2,8091E+16	None																				Prueba_Conductual_1	1	2024-09-08_19h04.40.217	AB	202421	6,00199E+15	2024-09-08 19h05.17.898834 +0200	
single	dual	0	0	0	HONDO	XANCHOX	0	10	3	7	i	p	0	YGLMSFQ												0	0	0	0	0	23	23	23	0	8	8	5	0	0	0	1					1,24178E+16											1,21278E+15	1,21294E+15	1,22275E+16	1,22309E+16	1,23326E+16	1,2326E+16	1,23947E+16	1,24027E+16	1,23961E+16	1,24036E+16	1,24044E+16	1,2411E+16	1,24175E+15	1,24194E+16																		1,24178E+16																			Prueba_Conductual_1	1	2024-09-08_19h04.40.217	AB	202421	6,00199E+15	2024-09-08 19h05.17.898834 +0200	
single	dual	1	1	0	HONDO	XANCHOX	0	10	3	7	i	p	0	ZTFYDXH												0	0	0	0	0	23	23	23					0	1	1	0					1,2421E+16																							1,24196E+16	1,24277E+16																		1,2421E+16																			Prueba_Conductual_1	1	2024-09-08_19h04.40.217	AB	202421	6,00199E+15	2024-09-08 19h05.17.898834 +0200	
single	dual	0	0	0	HONDO	XANCHOX	0	10	3	7	i	p	0	VYKXSPC												0	0	0	0	0	23	23	23									0	0	0	2	1,24428E+16																	1,24425E+16	1,24444E+16	1,24428E+16						1,24286E+16	1,24294E+16	1,24361E+15																																		Prueba_Conductual_1	1	2024-09-08_19h04.40.217	AB	202421	6,00199E+15	2024-09-08 19h05.17.898834 +0200	
single	dual	1	1	0	HONDO	XANCHOX	0	10	3	7	i	p	0	WMYFTGJ												0	0	0	0	0	23	23	23									0	1	1	6	1,2446E+15																	1,24446E+16	1,24527E+16	1,2446E+15																																										Prueba_Conductual_1	1	2024-09-08_19h04.40.217	AB	202421	6,00199E+15	2024-09-08 19h05.17.898834 +0200	
single	dual	2	2	0	HONDO	XANCHOX	0	10	3	7	i	p	0	HLFPYXK												0	0	0	0	0	23	23	23									0	2	2	4	1,24544E+16																	1,24529E+16	1,24611E+16	1,24544E+16																																										Prueba_Conductual_1	1	2024-09-08_19h04.40.217	AB	202421	6,00199E+15	2024-09-08 19h05.17.898834 +0200	
single	dual	3	3	0	HONDO	XANCHOX	0	10	3	7	i	p	0	ZTFYDXH												0	0	0	0	0	23	23	23									0	3	3	0	1,24627E+16																	1,24613E+15	1,24694E+16	1,24627E+16																																										Prueba_Conductual_1	1	2024-09-08_19h04.40.217	AB	202421	6,00199E+15	2024-09-08 19h05.17.898834 +0200	
single	dual	4	4	0	HONDO	XANCHOX	0	10	3	7	i	p	0	GQKRPDL												0	0	0	0	0	23	23	23									0	4	4	5	1,2471E+16																	1,24696E+16	1,24777E+16	1,2471E+16																																										Prueba_Conductual_1	1	2024-09-08_19h04.40.217	AB	202421	6,00199E+15	2024-09-08 19h05.17.898834 +0200	
single	dual	5	5	0	HONDO	XANCHOX	0	10	3	7	i	p	0	YGLMSFQ												0	0	0	0	0	23	23	23									0	5	5	1	1,24793E+16																	1,24779E+16	1,24861E+16	1,24793E+16																																										Prueba_Conductual_1	1	2024-09-08_19h04.40.217	AB	202421	6,00199E+15	2024-09-08 19h05.17.898834 +0200	
single	dual	6	6	0	HONDO	XANCHOX	0	10	3	7	i	p	0	ZJTSHFP												0	0	0	0	0	23	23	23									0	6	6	3	1,24877E+16																	1,24864E+16	1,24945E+16	1,24877E+16																																										Prueba_Conductual_1	1	2024-09-08_19h04.40.217	AB	202421	6,00199E+15	2024-09-08 19h05.17.898834 +0200	
single	dual	23	23	0	HONDO	XANCHOX	0	10	3	7	i	p	0		None	0	f	0	2,66882E+16	None						0	0	0	0	0	23	23	23																																									1,24952E+16	1,24953E+16	None	0	1,24953E+16	1,24961E+16	1,25961E+16	1,25961E+16	1,25961E+16	1,26229E+16	f	0	2,66882E+16	None																				Prueba_Conductual_1	1	2024-09-08_19h04.40.217	AB	202421	6,00199E+15	2024-09-08 19h05.17.898834 +0200	
single	dual	0	0	0	BARCO	PUEBLOX	0	10	7	3	i	p	0	ZTFYDXH												0	0	0	0	0	24	24	24	0	8	8	5	0	0	0	0					1,29127E+16											1,26232E+16	1,26245E+16	1,27245E+16	1,27245E+16	1,28297E+16	1,28229E+13	1,28898E+16	1,28979E+16	1,28912E+16	1,28986E+16	1,28996E+15	1,29063E+16	1,29123E+16	1,29146E+16																		1,29127E+16																			Prueba_Conductual_1	1	2024-09-08_19h04.40.217	AB	202421	6,00199E+15	2024-09-08 19h05.17.898834 +0200	
single	dual	1	1	0	BARCO	PUEBLOX	0	10	7	3	i	p	0	GQKRPDL												0	0	0	0	0	24	24	24					0	1	1	5					1,29163E+16																							1,29148E+16	1,2923E+15																		1,29163E+16																			Prueba_Conductual_1	1	2024-09-08_19h04.40.217	AB	202421	6,00199E+15	2024-09-08 19h05.17.898834 +0200	
single	dual	2	2	0	BARCO	PUEBLOX	0	10	7	3	i	p	0	VYKXSPC												0	0	0	0	0	24	24	24					0	2	2	2					1,29246E+16																							1,29233E+16	1,29312E+16																		1,29246E+16																			Prueba_Conductual_1	1	2024-09-08_19h04.40.217	AB	202421	6,00199E+15	2024-09-08 19h05.17.898834 +0200	
single	dual	3	3	0	BARCO	PUEBLOX	0	10	7	3	i	p	0	ZJTSHFP												0	0	0	0	0	24	24	24					0	3	3	3					1,29329E+16																							1,29315E+16	1,29396E+16																		1,29329E+16																			Prueba_Conductual_1	1	2024-09-08_19h04.40.217	AB	202421	6,00199E+15	2024-09-08 19h05.17.898834 +0200	
single	dual	4	4	0	BARCO	PUEBLOX	0	10	7	3	i	p	0	HLFPYXK												0	0	0	0	0	24	24	24					0	4	4	4					1,29413E+16																							1,29398E+16	1,29479E+16																		1,29413E+16																			Prueba_Conductual_1	1	2024-09-08_19h04.40.217	AB	202421	6,00199E+15	2024-09-08 19h05.17.898834 +0200	
single	dual	5	5	0	BARCO	PUEBLOX	0	10	7	3	i	p	0	YGLMSFQ												0	0	0	0	0	24	24	24					0	5	5	1					1,29496E+16																							1,29482E+15	1,29563E+14																		1,29496E+16																			Prueba_Conductual_1	1	2024-09-08_19h04.40.217	AB	202421	6,00199E+15	2024-09-08 19h05.17.898834 +0200	
single	dual	0	0	0	BARCO	PUEBLOX	0	10	7	3	i	p	0	YGLMSFQ												0	0	0	0	0	24	24	24									0	0	0	1	1,29712E+16																	1,29709E+16	1,29731E+15	1,29712E+16						1,29572E+15	1,2958E+16	1,29647E+14																																		Prueba_Conductual_1	1	2024-09-08_19h04.40.217	AB	202421	6,00199E+15	2024-09-08 19h05.17.898834 +0200	
single	dual	1	1	0	BARCO	PUEBLOX	0	10	7	3	i	p	0	VYKXSPC												0	0	0	0	0	24	24	24									0	1	1	2	1,29746E+16																	1,29733E+16	1,29813E+16	1,29746E+16																																										Prueba_Conductual_1	1	2024-09-08_19h04.40.217	AB	202421	6,00199E+15	2024-09-08 19h05.17.898834 +0200	
single	dual	2	2	0	BARCO	PUEBLOX	0	10	7	3	i	p	0	ZTFYDXH												0	0	0	0	0	24	24	24									0	2	2	0	1,2983E+16																	1,29815E+16	1,29896E+16	1,2983E+16																																										Prueba_Conductual_1	1	2024-09-08_19h04.40.217	AB	202421	6,00199E+15	2024-09-08 19h05.17.898834 +0200	
single	dual	24	24	0	BARCO	PUEBLOX	0	10	7	3	i	p	0		None	0	j	0	3,08842E+15	None						0	0	0	0	0	24	24	24																																									1,29903E+16	1,29904E+16	None	0	1,29904E+16	1,29913E+16	1,30913E+16	1,30913E+16	1,30913E+16	1,31232E+16	j	0	3,08842E+15	None																				Prueba_Conductual_1	1	2024-09-08_19h04.40.217	AB	202421	6,00199E+15	2024-09-08 19h05.17.898834 +0200	
single	dual	0	0	0	GRANDE	ENORMEX	9999999	10	7	3	p	i	1	YGLMSFQ												0	0	0	0	0	25	25	25	0	8	8	3	0	0	0	1					1,34231E+16											1,31234E+15	1,31246E+16	1,32231E+16	1,32247E+16	1,33364E+16	1,33218E+16	1,33903E+16	1,33984E+16	1,33916E+16	1,34023E+15	1,3403E+16	1,34066E+16	1,34222E+16	1,34222E+16																																					Prueba_Conductual_1	1	2024-09-08_19h04.40.217	AB	202421	6,00199E+15	2024-09-08 19h05.17.898834 +0200	
